t,acc_x,acc_y,acc_z,gyr_x,gyr_y,gyr_z
55.004,-1.21524,-7.2548,3.71563,-10.2363,1.61521,70.9452
55.009,-1.20685,-7.26601,3.64697,-10.1262,3.03267,67.8702
55.014,-1.18731,-7.23127,3.62564,-9.98357,4.09671,64.729
55.019,-1.19554,-7.16248,3.52787,-9.72519,5.17196,61.7534
55.024,-1.17934,-7.14089,3.5133,-9.46753,6.03986,58.5902
55.029,-1.17031,-7.09027,3.52117,-9.07312,6.47101,55.2935
55.034,-1.10673,-7.0878,3.49948,-8.73829,6.71153,52.0292
55.039,-1.0588,-7.07881,3.5236,-8.24245,6.6746,48.6936
55.043,-0.970472,-7.09451,3.56705,-7.67388,6.27399,45.422
55.048,-0.926784,-7.12352,3.54907,-7.11362,5.54495,42.1562
55.053,-0.852827,-7.1646,3.59724,-6.43994,4.42734,38.8825
55.058,-0.737499,-7.22531,3.65135,-5.76236,3.0608,35.6456
55.063,-0.656067,-7.31497,3.67996,-5.20283,1.50534,32.4592
55.068,-0.608551,-7.41614,3.71365,-4.53582,-0.367315,29.4441
55.073,-0.528491,-7.4416,3.74766,-4.22516,-2.36522,26.5293
55.078,-0.422893,-7.46296,3.79884,-3.89411,-4.7963,23.5175
55.082,-0.330007,-7.47881,3.84086,-3.29218,-7.64448,20.3897
55.087,-0.234816,-7.57006,3.84937,-2.76677,-10.7214,17.0385
55.092,-0.172619,-7.64797,3.91181,-2.05611,-14.1388,13.2888
55.097,-0.0848873,-7.78779,3.98179,-1.45818,-17.8016,9.6121
55.102,-0.0361665,-7.94965,4.05762,-0.8838,-21.6384,5.67136
55.107,-0.0392859,-8.14318,4.13126,-0.089343,-25.7694,1.43937
55.112,0.000429047,-8.33824,4.22978,0.567397,-29.6711,-2.84687
55.117,-0.0247188,-8.58849,4.33504,1.05602,-33.6538,-7.45995
55.121,-0.0935098,-8.82835,4.41188,1.3639,-37.5596,-11.8394
55.126,-0.140649,-9.00821,4.43947,1.60293,-41.3507,-16.2459
55.131,-0.149418,-9.17435,4.49224,1.8199,-45.1237,-20.9307
55.136,-0.171009,-9.39867,4.55795,2.20176,-48.8039,-25.9169
55.141,-0.271052,-9.63159,4.58204,2.7515,-52.6255,-30.966
55.146,-0.301659,-9.82313,4.68008,3.06357,-56.3985,-36.1672
55.151,-0.294328,-10.0313,4.74034,3.48625,-60.1037,-41.2254
55.155,-0.357845,-10.1982,4.77852,3.60325,-63.4381,-46.2749
55.161,-0.342346,-10.2983,4.82214,3.72702,-66.6365,-51.3161
55.166,-0.313522,-10.3945,4.85974,4.09971,-70.0113,-56.3619
55.171,-0.273529,-10.5605,4.94019,4.53049,-73.6103,-61.8153
55.176,-0.265175,-10.7948,5.03861,5.28733,-77.3941,-67.6415
55.18,-0.231291,-11.1571,5.13495,6.23166,-81.1186,-73.693
55.186,-0.211879,-11.5424,5.26772,7.21227,-84.6043,-79.6514
55.19,-0.228007,-11.9352,5.48057,7.80813,-88.1105,-85.4058
55.196,-0.226418,-12.308,5.6355,8.04394,-91.0486,-90.3181
55.2,-0.251791,-12.6059,5.71243,7.89626,-93.5928,-94.6521
55.206,-0.336571,-12.7886,5.78065,7.44074,-95.7217,-98.3722
55.211,-0.404056,-12.8622,5.84522,6.63613,-97.6174,-101.593
55.215,-0.463204,-12.7828,5.82468,5.65671,-99.2855,-104.371
55.221,-0.572851,-12.6361,5.76427,5.17405,-100.657,-107.02
55.225,-0.698205,-12.5476,5.75587,5.14569,-101.916,-109.659
55.231,-0.765828,-12.4296,5.63976,5.51387,-103.06,-112.268
55.235,-0.848397,-12.3949,5.56451,6.0351,-103.968,-114.819
55.241,-0.9458,-12.3141,5.51766,6.41939,-104.44,-117.237
55.245,-1.03958,-12.3057,5.45735,6.90974,-104.58,-119.347
55.25,-1.23736,-12.2439,5.34788,7.62768,-103.83,-121.43
55.256,-1.41799,-12.2202,5.2166,8.23599,-102.94,-123.468
55.26,-1.61659,-12.1981,5.12453,9.04803,-101.318,-125.54
55.266,-1.84406,-12.1932,5.02202,9.79618,-98.7975,-127.496
55.27,-2.06768,-12.1995,4.8523,10.5787,-95.3742,-129.019
55.276,-2.22152,-12.2336,4.7645,11.3652,-91.3583,-130.382
55.28,-2.40511,-12.2263,4.65762,11.9116,-86.6304,-131.56
55.286,-2.51269,-12.2027,4.53532,12.3609,-81.2386,-131.883
55.291,-2.64277,-12.1155,4.44736,12.8703,-75.2114,-131.458
55.296,-2.73662,-11.9602,4.34001,13.193,-69.0362,-130.621
55.301,-2.78585,-11.7615,4.22668,13.5558,-62.649,-129.264
55.305,-2.81155,-11.6038,4.09622,14.0837,-56.566,-127.552
55.311,-2.77405,-11.4705,3.99385,14.8549,-50.3656,-125.275
55.315,-2.68517,-11.2649,3.96885,15.6142,-44.6416,-122.373
55.321,-2.62105,-11.1371,3.93644,16.3757,-39.1368,-119.031
55.325,-2.50717,-11.0042,3.91835,17.108,-34.1316,-115.117
55.331,-2.38287,-10.8674,3.93328,17.6088,-29.5457,-110.877
55.336,-2.18916,-10.7726,3.98198,18.0108,-25.5519,-106.28
55.34,-1.97447,-10.6737,4.04926,18.3948,-22.1854,-101.268
55.346,-1.78086,-10.6912,4.14102,18.694,-19.1539,-96.0843
55.35,-1.62049,-10.6945,4.23738,18.631,-16.7955,-90.3536
55.356,-1.39604,-10.732,4.34952,18.3351,-15.0488,-84.2833
55.36,-1.17951,-10.7339,4.44885,17.8283,-13.9322,-77.5951
55.365,-0.945594,-10.7614,4.49366,16.7755,-13.797,-70.0983
55.37,-0.690943,-10.7661,4.53832,15.3992,-14.5372,-61.9106
55.375,-0.429342,-10.7467,4.60296,14.0843,-16.1322,-53.2353
55.38,-0.209519,-10.6733,4.59249,12.6886,-19.1524,-44.4735
55.385,-0.0151136,-10.5713,4.59429,11.1076,-23.2924,-35.1684
55.39,0.110586,-10.5173,4.55743,9.43219,-28.2884,-25.6713
55.395,0.221638,-10.4343,4.58356,7.79826,-33.9432,-16.1809
55.399,0.313764,-10.3153,4.49687,6.42096,-40.2724,-6.62136
55.404,0.327724,-10.2195,4.49999,4.85973,-47.1319,2.81055
55.409,0.237747,-10.1201,4.45907,3.49654,-54.2675,11.6731
55.414,0.14541,-10.0101,4.45787,1.89926,-61.2064,19.7637
55.419,-0.0392181,-9.83977,4.46059,-0.00326107,-67.3928,27.0043
55.424,-0.120485,-9.74873,4.513,-1.71127,-73.1614,34.4177
55.429,-0.130502,-9.67731,4.40921,-3.22408,-78.5274,41.8021
55.433,-0.197499,-9.56348,4.36005,-4.31865,-84.2409,48.7153
55.438,-0.252744,-9.46134,4.31756,-5.36265,-90.5224,55.0248
55.443,-0.360648,-9.31608,4.27898,-6.75497,-96.822,61.0389
55.448,-0.556644,-9.1908,4.18507,-7.62515,-102.697,66.8395
55.453,-0.708671,-9.07805,4.15306,-7.7684,-108.065,72.2541
55.458,-0.850977,-8.97352,4.07246,-7.65691,-113.06,77.2175
55.463,-1.01038,-8.88053,4.01872,-7.40765,-117.666,81.9686
55.468,-1.15833,-8.7312,3.94783,-7.17832,-122.077,86.225
55.472,-1.2805,-8.54754,3.89187,-6.65799,-126.099,89.7344
55.477,-1.45576,-8.38226,3.82839,-6.09764,-129.735,92.7172
55.482,-1.63048,-8.20629,3.76559,-5.23807,-132.655,94.9468
55.487,-1.77954,-8.01111,3.71883,-4.30002,-134.771,96.5268
55.492,-1.96659,-7.86404,3.71604,-3.26295,-136.295,97.7499
55.497,-2.15438,-7.71045,3.678,-2.51061,-137.278,98.4155
55.502,-2.22041,-7.57291,3.66184,-1.78571,-137.567,98.513
55.507,-2.33834,-7.39983,3.66894,-1.00346,-137.446,98.1377
55.512,-2.48075,-7.27551,3.65061,-0.220557,-136.721,97.2936
55.516,-2.59756,-7.14826,3.63358,0.633141,-135.314,95.9933
55.521,-2.63463,-7.06182,3.58654,1.36261,-133.627,94.2657
55.526,-2.68717,-6.98605,3.61986,2.23198,-131.374,92.1097
55.531,-2.73264,-6.95443,3.63186,2.88476,-128.679,89.6249
55.536,-2.76037,-6.86803,3.64711,3.58892,-125.502,86.8466
55.541,-2.75863,-6.85203,3.69952,4.18706,-121.816,83.8824
55.546,-2.77081,-6.83585,3.69105,4.64365,-117.651,80.8271
55.551,-2.72314,-6.82594,3.66587,4.77032,-113.275,77.7183
55.555,-2.73009,-6.78411,3.65551,5.05811,-108.558,74.2713
55.561,-2.70348,-6.75865,3.674,5.27774,-103.741,70.5953
55.565,-2.69379,-6.74826,3.67181,5.46242,-98.9693,66.8114
55.571,-2.71802,-6.79795,3.69567,5.67208,-94.0544,62.8883
55.575,-2.72943,-6.87293,3.6664,6.07381,-89.1208,58.9642
55.581,-2.72533,-6.93349,3.66944,6.68595,-84.162,54.8915
55.586,-2.73195,-7.06186,3.59635,6.9137,-79.2384,50.8201
55.59,-2.71469,-7.21699,3.55426,7.20429,-74.3582,46.9549
55.596,-2.67359,-7.3977,3.55904,7.4851,-69.999,43.1099
55.6,-2.60323,-7.46845,3.53408,7.58674,-65.9896,39.7512
55.606,-2.47966,-7.55429,3.5365,7.32014,-62.5818,37.1185
55.61,-2.3931,-7.6209,3.46639,7.18544,-59.951,34.9864
55.616,-2.24489,-7.61783,3.29723,7.69473,-58.1929,33.1608
55.62,-2.16605,-7.66606,3.24893,8.64511,-57.4348,31.2074
55.625,-2.18655,-7.74192,3.20666,9.87761,-57.2215,28.9815
55.631,-2.21583,-7.88678,3.17525,10.9603,-56.8585,26.6702
55.635,-2.21155,-8.01312,3.23382,11.6594,-56.3237,24.5479
55.641,-2.17074,-8.1743,3.23572,12.1098,-56.0092,23.087
55.645,-2.10029,-8.30848,3.29798,12.238,-55.7587,22.0355
55.651,-1.98403,-8.28323,3.28203,12.0049,-55.9738,21.7184
55.655,-1.94317,-8.24752,3.29691,11.8892,-56.6041,21.8199
55.661,-1.94906,-8.20179,3.25732,11.8187,-57.5232,21.6845
55.666,-1.95566,-8.18067,3.23401,12.3285,-58.86,21.1944
55.671,-1.95162,-8.24006,3.25289,13.3459,-60.2511,20.2855
55.676,-1.90687,-8.37484,3.34553,14.1611,-61.562,19.1302
55.68,-1.91146,-8.56784,3.44664,14.8917,-62.3666,18.2694
55.686,-1.91453,-8.69652,3.51406,15.1859,-63.0541,17.6383
55.69,-1.99421,-8.90843,3.39184,15.4883,-63.4131,17.0015
55.696,-2.08317,-9.09912,3.35057,16.115,-63.5305,15.739
55.7,-2.25744,-9.37347,3.23698,17.3031,-62.821,13.9377
55.706,-2.38478,-9.77593,3.1417,18.6157,-61.39,11.4377
55.711,-2.49201,-10.1778,3.15939,19.5341,-59.6742,9.08141
55.715,-2.47838,-10.5683,3.24182,19.9427,-57.4628,7.09282
55.721,-2.36937,-10.838,3.34464,19.6873,-54.9614,5.81873
55.725,-2.30388,-10.9813,3.48867,19.1709,-52.7598,5.17477
55.731,-2.19965,-10.987,3.56619,18.5701,-50.8931,4.70286
55.735,-2.08596,-10.9465,3.65339,18.343,-49.497,4.4515
55.741,-2.04865,-10.8882,3.68686,18.4397,-48.4635,4.04343
55.745,-2.06032,-10.8253,3.75605,18.9931,-47.3611,3.04134
55.75,-2.07424,-10.9348,3.83503,19.6182,-46.433,1.25886
55.755,-2.11211,-11.0649,3.91981,20.3818,-44.9077,-0.548701
55.76,-2.21179,-11.2524,3.94054,20.8069,-42.8806,-2.67128
55.765,-2.26962,-11.4478,3.98372,20.7024,-40.162,-4.92048
55.77,-2.32844,-11.6657,4.00974,20.769,-36.9775,-6.87131
55.775,-2.3731,-11.8896,4.01743,20.6964,-33.7561,-8.86224
55.78,-2.40421,-12.0617,4.04739,20.5964,-30.4599,-11.1539
55.785,-2.40833,-12.2778,4.10388,20.6833,-27.0896,-13.4691
55.79,-2.38819,-12.5425,4.16255,20.6914,-23.5065,-16.0584
55.794,-2.40258,-12.827,4.25736,20.5779,-19.6412,-18.2446
55.799,-2.33181,-13.1265,4.38541,20.4203,-15.5169,-20.5976
55.804,-2.30209,-13.3958,4.44301,19.9634,-11.4899,-22.4647
55.809,-2.32744,-13.6463,4.48313,19.182,-7.08552,-23.9732
55.814,-2.29888,-13.7852,4.62092,18.1313,-2.69057,-25.1129
55.819,-2.289,-13.8406,4.67429,16.7637,1.58389,-25.8204
55.824,-2.3105,-13.8556,4.65505,15.4115,5.704,-26.2581
55.829,-2.26815,-13.8515,4.694,14.0409,9.59353,-26.9371
55.833,-2.24434,-13.846,4.68933,12.9184,13.0992,-27.8085
55.838,-2.27999,-13.8075,4.6516,12.1554,16.4961,-28.5415
55.843,-2.28645,-13.8198,4.64816,11.2858,19.7987,-28.991
55.848,-2.30032,-13.8694,4.59237,10.0949,23.0222,-29.2328
55.853,-2.33809,-13.8076,4.56164,8.65274,25.6257,-28.9869
55.858,-2.35936,-13.7437,4.51917,7.28892,28.2538,-27.8752
55.863,-2.37242,-13.6078,4.38312,5.65346,30.4725,-26.5682
55.867,-2.44916,-13.406,4.31004,4.23179,32.0867,-24.5146
55.872,-2.51553,-13.1692,4.2185,2.65511,33.5102,-21.9124
55.877,-2.5898,-12.8483,4.0932,1.16718,34.6231,-18.7887
55.882,-2.6569,-12.4904,3.95505,-0.0391579,35.4283,-15.3461
55.887,-2.72693,-12.1314,3.87187,-1.21285,36.1024,-11.5801
55.892,-2.79135,-11.7513,3.78857,-2.10207,36.6313,-7.91309
55.897,-2.79822,-11.4515,3.67231,-2.84374,37.452,-4.21176
55.902,-2.79506,-11.1445,3.57145,-3.23657,38.2768,-0.417283
55.906,-2.7746,-10.9093,3.46875,-3.49327,39.2987,3.17858
55.911,-2.76577,-10.7267,3.43068,-3.85434,40.4039,6.84183
55.916,-2.71158,-10.525,3.39135,-4.43021,41.7468,10.8189
55.921,-2.56648,-10.3318,3.45145,-5.0642,43.3138,15.2036
55.926,-2.3555,-10.1456,3.46593,-5.85848,44.5244,19.7249
55.931,-2.21023,-10.0532,3.52046,-6.84659,45.5247,24.2609
55.936,-2.09489,-9.91576,3.60337,-7.4897,46.5558,28.4638
55.941,-1.99127,-9.82891,3.78269,-7.97326,47.7358,32.3425
55.946,-1.9532,-9.85683,3.92392,-9.12677,49.2147,35.4772
55.95,-1.80893,-9.93254,4.02411,-10.7155,51.3999,38.1708
55.956,-1.75734,-10.0359,4.29693,-12.7683,54.1737,40.1367
55.961,-1.6726,-10.2046,4.48923,-15.4947,57.7174,41.7113
55.965,-1.59382,-10.4274,4.58704,-18.7053,61.8862,43.3121
55.971,-1.51265,-10.6083,4.73679,-22.0274,66.399,44.315
55.975,-1.44341,-10.7915,4.89679,-25.2204,71.3695,44.4542
55.981,-1.32571,-11.087,5.06237,-28.607,76.1297,44.6083
55.985,-1.17317,-11.3823,5.19472,-32.4719,80.8247,44.8763
55.991,-1.05349,-11.7025,5.27234,-36.7182,85.0278,44.9947
55.995,-0.904213,-11.7169,5.38252,-42.291,88.2584,44.6453
56,-0.786912,-11.7537,5.32769,-46.4277,91.2584,44.207
56.006,-0.597844,-11.9391,5.32464,-48.2405,92.6381,44.6157
56.01,-0.289931,-12.202,5.5015,-50.4866,92.4407,45.6376
56.016,-0.22592,-12.3447,5.67297,-54.3837,91.6483,46.5502
56.02,-0.274767,-12.396,5.56943,-58.3512,90.2217,49.3547
56.026,-0.107873,-12.4329,5.33521,-59.6734,87.5388,54.8256
56.03,0.101056,-12.4149,5.08551,-58.505,81.4416,61.2396
56.035,0.152045,-12.3656,4.87349,-56.2395,71.8689,67.6185
56.041,-0.0385319,-12.232,4.81232,-53.4395,60.1029,74.4931
56.046,-0.30799,-12.0315,4.84585,-50.3238,48.9316,82.1185
56.051,-0.575247,-11.8205,4.91773,-47.7715,39.836,88.9613
56.055,-0.785911,-11.6787,4.98474,-46.2413,33.5228,93.2704
56.061,-0.881704,-11.4998,4.9495,-46.1436,30.049,95.7782
56.065,-0.901073,-11.1943,4.88926,-47.2975,28.5596,97.7664
56.071,-0.854741,-10.8436,4.80995,-48.0315,28.5975,99.5142
56.075,-0.747089,-10.5121,4.7844,-47.4712,28.6606,100.692
56.081,-0.753344,-10.2165,4.73505,-45.1327,28.3611,101.866
56.086,-0.763232,-10.0465,4.67036,-41.6842,27.1746,103.202
56.09,-0.738964,-9.94945,4.60972,-38.0851,25.2045,104.688
56.096,-0.746579,-9.8362,4.55788,-34.5584,22.3601,106.644
56.1,-0.781522,-9.72452,4.48291,-30.8258,19.1864,108.884
56.106,-0.77628,-9.62037,4.3927,-27.0147,16.1969,110.741
56.11,-0.867815,-9.55403,4.33389,-23.2181,13.3469,112.127
56.116,-0.958133,-9.49995,4.2963,-19.9664,11.3429,113.116
56.12,-1.02191,-9.41921,4.29304,-17.1962,10.1266,113.714
56.125,-1.03689,-9.3083,4.25004,-14.7036,9.81035,114.151
56.131,-1.07771,-9.16458,4.21757,-12.7091,10.2438,113.942
56.135,-1.11026,-9.07711,4.18494,-10.9298,11.3116,113.389
56.141,-1.16799,-8.93099,4.16238,-9.24057,12.7197,112.718
56.145,-1.17489,-8.77574,4.12485,-7.71253,14.1832,111.73
56.15,-1.20921,-8.65078,4.14737,-6.43734,15.8498,110.32
56.155,-1.20535,-8.51236,4.12993,-5.2643,17.7772,108.761
56.16,-1.21144,-8.37849,4.1939,-4.15792,19.9969,106.959
56.165,-1.23627,-8.2745,4.20062,-3.37488,22.3418,104.721
56.17,-1.26304,-8.18187,4.21831,-2.76443,24.8697,102.323
56.175,-1.27867,-8.14535,4.19674,-2.36206,27.5491,99.8566
56.18,-1.28364,-8.12335,4.22696,-2.10741,30.5558,97.0892
56.185,-1.26204,-8.06219,4.19356,-2.17813,33.5102,94.1031
56.189,-1.30944,-8.01193,4.14914,-2.57875,36.6761,91.0633
56.194,-1.28036,-7.93333,4.10579,-3.00811,39.9466,88.1265
56.199,-1.23923,-7.83744,4.05106,-3.73634,42.8827,85.0842
56.204,-1.22779,-7.79852,4.00333,-4.35962,45.7206,81.7726
56.209,-1.19943,-7.76198,3.94571,-4.95484,48.2466,78.1705
56.214,-1.16077,-7.71923,3.95282,-5.4881,50.5219,74.587
56.219,-1.12689,-7.7426,3.88659,-6.23253,52.5637,70.9647
56.224,-1.11059,-7.70967,3.75823,-6.94351,54.4595,67.4641
56.228,-1.06786,-7.63032,3.72646,-7.7505,56.148,64.292
56.233,-1.04171,-7.60419,3.63049,-8.56879,57.1229,61.1542
56.238,-0.962867,-7.53782,3.57082,-9.1859,57.8103,58.0752
56.243,-0.918788,-7.42552,3.49172,-9.71579,57.7724,55.1421
56.248,-0.853796,-7.39127,3.40687,-10.0657,57.0536,52.4445
56.253,-0.744241,-7.294,3.37834,-10.0779,55.6255,49.8741
56.258,-0.702589,-7.27089,3.2841,-10.1143,53.4192,47.5087
56.263,-0.676373,-7.22849,3.20286,-9.89269,50.7311,45.1981
56.267,-0.645171,-7.19064,3.12196,-9.61126,47.6146,43.1224
56.272,-0.650488,-7.15285,3.03661,-9.47733,44.2065,41.0123
56.277,-0.647183,-7.09112,3.0089,-9.13378,40.8393,38.9552
56.282,-0.638409,-7.05701,2.9369,-8.77434,37.3028,36.966
56.287,-0.626197,-6.9772,2.88761,-8.43379,33.5508,34.9375
56.292,-0.59835,-6.98247,2.88085,-8.24237,29.3145,32.8886
56.297,-0.54901,-6.99027,2.86277,-7.696,25.011,30.7537
56.301,-0.480724,-7.02142,2.8595,-7.22074,20.6446,28.8076
56.306,-0.411891,-7.02445,2.88748,-6.96414,15.9236,27.0162
56.311,-0.378211,-7.02571,2.9152,-6.99948,11.2264,25.5173
56.316,-0.301533,-7.01458,2.95084,-7.15435,6.14792,24.0831
56.321,-0.251339,-6.99633,2.99745,-7.18602,0.979567,22.2315
56.326,-0.263554,-7.01012,3.05635,-7.09519,-4.26367,20.1643
56.331,-0.168343,-7.06649,3.126,-6.89462,-9.64653,18.0525
56.336,-0.082734,-7.16555,3.23353,-6.79718,-14.9761,15.6042
56.34,-0.118807,-7.36433,3.31468,-7.00614,-20.1421,12.9768
56.346,-0.056161,-7.52637,3.4514,-7.16969,-25.3748,10.502
56.35,-0.0122453,-7.70088,3.56145,-7.60572,-30.605,7.76787
56.356,0.0121968,-7.86269,3.65601,-8.33001,-35.4413,5.09593
56.36,-0.0402581,-8.04842,3.74774,-9.0128,-40.3175,2.15027
56.366,-0.0705112,-8.26064,3.83281,-9.47469,-45.2805,-0.898983
56.37,-0.0539094,-8.43662,3.9197,-10.2217,-50.0836,-3.64728
56.375,-0.0509577,-8.59592,4.02559,-10.8167,-54.8588,-6.52629
56.381,-0.0665952,-8.73511,4.13429,-11.7317,-59.5204,-9.21176
56.385,-0.0660451,-8.82159,4.17687,-12.5195,-64.2985,-11.8882
56.391,-0.0964195,-8.93431,4.2517,-12.9746,-69.1255,-14.929
56.395,-0.0786214,-9.07384,4.3388,-13.1732,-74.0077,-18.1679
56.401,-0.110664,-9.21744,4.42749,-13.446,-78.7189,-21.4564
56.405,-0.0916807,-9.36907,4.53577,-13.7982,-82.9802,-24.4279
56.41,-0.169152,-9.49962,4.59003,-13.9756,-87.2469,-27.4537
56.416,-0.176973,-9.54495,4.6339,-14.4367,-91.3836,-30.5824
56.42,-0.190503,-9.62773,4.66312,-14.7565,-95.3794,-33.887
56.426,-0.173919,-9.70655,4.70809,-14.7024,-99.2269,-37.2382
56.43,-0.183205,-9.79997,4.8004,-14.5425,-102.965,-40.6709
56.436,-0.109903,-9.98143,4.86039,-14.416,-106.779,-44.6148
56.44,-0.0390671,-10.1325,5.02236,-14.1845,-110.692,-48.828
56.446,0.0344491,-10.3623,5.16848,-13.8184,-114.599,-53.2255
56.45,0.0615372,-10.6639,5.36602,-13.341,-118.454,-57.6819
56.456,0.0392724,-10.9926,5.52054,-13.1874,-121.946,-61.9814
56.461,0.0253375,-11.2778,5.7298,-13.4273,-125.169,-66.3393
56.465,-0.0495502,-11.5643,5.87232,-13.7854,-127.961,-70.9138
56.471,-0.129387,-11.8825,5.93753,-13.7628,-130.469,-75.5266
56.475,-0.211563,-12.1552,6.10365,-14.1036,-132.62,-80.3145
56.481,-0.284198,-12.4499,6.23809,-14.3142,-134.502,-85.1219
56.485,-0.364042,-12.702,6.31291,-14.5513,-135.879,-89.6531
56.491,-0.444243,-12.9509,6.3701,-15.118,-137.045,-94.237
56.495,-0.526153,-13.1147,6.44561,-15.4557,-137.969,-98.9311
56.5,-0.665262,-13.285,6.53155,-15.5224,-138.469,-103.618
56.506,-0.831948,-13.4733,6.51447,-15.3473,-138.44,-108.196
56.51,-1.03105,-13.5902,6.51517,-15.255,-137.713,-112.494
56.516,-1.28702,-13.6058,6.41989,-15.3789,-136.099,-116.34
56.52,-1.53635,-13.4981,6.26918,-15.43,-133.785,-119.611
56.526,-1.8005,-13.314,6.07947,-15.3856,-130.804,-122.23
56.53,-2.08168,-12.9796,5.86849,-14.9089,-127.454,-124.524
56.535,-2.36954,-12.6403,5.61947,-14.0512,-123.613,-126.669
56.541,-2.65721,-12.3356,5.37444,-12.7949,-119.242,-128.407
56.545,-2.86596,-12.028,5.15698,-11.305,-114.448,-129.642
56.55,-3.12091,-11.7308,4.93725,-9.41458,-108.946,-130.687
56.555,-3.27082,-11.386,4.69554,-7.43383,-102.944,-131.492
56.56,-3.38242,-11.0922,4.48521,-5.25956,-96.5094,-131.923
56.565,-3.42698,-10.8824,4.25671,-2.6303,-89.7388,-131.952
56.57,-3.49563,-10.6412,4.06054,0.0641266,-82.6118,-131.601
56.575,-3.54901,-10.4643,3.91989,3.03889,-75.1435,-130.795
56.579,-3.511,-10.3376,3.78755,5.84541,-67.5342,-129.926
56.584,-3.44127,-10.2236,3.69394,8.86184,-59.6614,-128.614
56.589,-3.38039,-10.2073,3.6944,11.8419,-51.1862,-127.274
56.594,-3.36275,-10.2163,3.71975,14.091,-41.7319,-126.118
56.599,-3.32378,-10.2241,3.78128,15.8044,-31.5148,-124.91
56.604,-3.15022,-10.2385,3.87272,16.5723,-20.6995,-123.306
56.609,-2.96617,-10.2514,3.96553,16.7976,-9.65459,-121.002
56.614,-2.67622,-10.3225,4.08181,16.8487,0.999303,-117.986
56.618,-2.30024,-10.3041,4.20773,16.8052,10.178,-114.511
56.623,-1.96862,-10.3658,4.31187,16.7076,17.8718,-110.448
56.628,-1.59175,-10.3573,4.42549,16.2552,23.5533,-105.886
56.633,-1.29258,-10.329,4.59382,15.7556,27.267,-100.46
56.638,-1.03715,-10.324,4.68846,15.0262,29.5158,-94.1881
56.643,-0.827331,-10.3374,4.73504,13.9844,29.92,-87.5045
56.648,-0.568964,-10.28,4.88231,12.8135,28.8029,-80.4694
56.653,-0.378516,-10.2482,4.94289,11.2666,26.5184,-73.294
56.658,-0.192828,-10.2164,4.93971,9.57364,22.6745,-66.0225
56.662,0.0431192,-10.1987,5.01885,7.76954,17.3175,-58.5475
56.667,0.232299,-10.206,4.98237,6.02373,10.4986,-50.946
56.672,0.387427,-10.2086,4.90054,4.11922,2.05538,-43.0776
56.677,0.490807,-10.1918,4.8924,2.42805,-7.437,-35.2418
56.682,0.444544,-10.2846,4.8658,1.10376,-17.7582,-27.5835
56.687,0.495448,-10.3787,4.74836,-0.85293,-29.1914,-19.587
56.692,0.461992,-10.4307,4.67825,-2.60681,-40.7196,-11.5458
56.697,0.256481,-10.5,4.54074,-3.49599,-51.9694,-3.83602
56.701,0.113686,-10.5169,4.58348,-3.89756,-62.4584,2.69372
56.706,-0.223303,-10.5085,4.58028,-5.04492,-71.4322,7.90972
56.711,-0.554129,-10.4855,4.54704,-6.08863,-79.014,13.1156
56.716,-0.685204,-10.4035,4.4725,-6.77272,-85.6409,18.9719
56.721,-0.741812,-10.3081,4.29728,-7.0399,-92.5858,24.7608
56.726,-0.848356,-10.2008,4.07322,-7.06068,-100.329,29.982
56.731,-1.00736,-10.0325,3.94877,-6.60178,-108.656,34.9529
56.735,-1.1853,-9.78856,3.9012,-5.31585,-116.914,39.903
56.741,-1.36727,-9.56865,3.79456,-3.69262,-125.262,44.7129
56.745,-1.59527,-9.31041,3.72985,-1.63275,-132.885,49.4157
56.75,-1.8113,-9.06365,3.73699,0.630443,-139.382,53.4272
56.756,-1.97413,-8.80086,3.71995,2.66394,-145.104,56.6242
56.76,-2.12646,-8.60256,3.69467,4.77064,-149.966,59.1489
56.766,-2.27923,-8.38121,3.71403,6.97103,-154.18,61.2941
56.77,-2.35772,-8.15562,3.77822,9.02892,-157.503,62.8933
56.776,-2.45819,-7.97424,3.77609,10.9475,-160.172,64.1854
56.78,-2.54832,-7.80526,3.79227,13.0528,-162.146,65.1869
56.785,-2.58168,-7.6566,3.84782,14.8366,-163.581,66.1291
56.791,-2.67782,-7.50559,3.84648,16.6398,-164.195,66.6417
56.795,-2.72465,-7.39231,3.89445,18.3742,-164.077,66.8606
56.801,-2.83591,-7.27266,3.96056,19.8027,-162.969,66.8204
56.805,-2.94457,-7.19935,3.97505,21.0827,-160.899,66.4137
56.811,-3.02265,-7.06165,4.00084,22.2402,-158.135,65.9553
56.815,-3.12051,-7.02378,3.98902,23.2258,-154.363,65.2559
56.821,-3.16833,-6.9691,3.94283,24.2612,-149.683,64.0102
56.825,-3.21744,-6.94853,3.92811,24.9735,-144.655,62.719
56.831,-3.30516,-6.97189,3.89044,25.5448,-139.163,61.1346
56.836,-3.34602,-6.94158,3.88517,26.272,-133.274,59.1896
56.84,-3.37892,-6.94801,3.87684,26.7631,-126.921,57.4678
56.846,-3.37323,-6.99399,3.85128,27.2315,-120.534,55.6695
56.85,-3.39492,-7.04029,3.81842,27.6175,-114.306,53.8276
56.856,-3.37669,-7.10572,3.81897,27.7175,-108.125,52.0986
56.86,-3.34469,-7.1067,3.80902,27.8031,-102.202,50.5549
56.866,-3.32556,-7.11611,3.80687,28.0869,-96.3307,48.8309
56.87,-3.31803,-7.16587,3.77147,28.3322,-90.8769,47.2301
56.875,-3.31526,-7.24687,3.72387,28.3913,-85.512,45.4505
56.881,-3.31358,-7.36666,3.64437,28.6372,-80.0729,43.6477
56.885,-3.28511,-7.53053,3.52623,28.682,-74.9652,42.0531
56.891,-3.13047,-7.69454,3.37809,28.556,-70.4978,41.2066
56.895,-2.98854,-7.83563,3.25141,28.537,-66.9517,41.0002
56.901,-2.84077,-7.90667,3.16881,28.7556,-64.2956,40.8235
56.905,-2.74315,-8.00964,3.1217,28.9455,-62.3762,40.6271
56.91,-2.64469,-8.06913,3.16988,28.9174,-60.8263,40.3835
56.916,-2.51035,-8.15436,3.22296,28.7896,-59.8537,40.6989
56.92,-2.31055,-8.2546,3.3266,28.9411,-59.5887,41.1596
56.926,-2.15773,-8.35759,3.40858,29.2145,-60.0027,41.8738
56.93,-1.99209,-8.40242,3.47762,29.2285,-60.7463,42.8145
56.936,-1.87959,-8.44697,3.58554,29.6934,-61.9688,43.6074
56.94,-1.88927,-8.63799,3.58947,30.4909,-63.4623,43.6465
56.945,-1.96964,-8.91818,3.63304,31.4402,-64.5314,42.8982
56.95,-2.1006,-9.27937,3.60276,32.1806,-64.815,42.0174
56.955,-2.2015,-9.6043,3.55254,32.5352,-64.4855,41.2747
56.96,-2.30977,-9.94898,3.48056,32.703,-63.389,40.6776
56.965,-2.38168,-10.2241,3.4702,32.5235,-61.8818,40.3629
56.97,-2.42826,-10.4468,3.39088,32.5391,-60.1942,39.6295
56.975,-2.49822,-10.7329,3.21046,32.7681,-58.0955,38.7189
56.979,-2.6024,-11.0062,3.16077,33.1316,-55.992,37.6239
56.984,-2.55397,-11.1971,3.25466,33.2038,-53.8797,36.6194
56.989,-2.44394,-11.3297,3.3633,32.8435,-51.6768,36.2712
56.994,-2.32038,-11.4106,3.49422,32.5091,-49.7413,36.238
56.999,-2.23615,-11.3794,3.61674,32.2874,-48.1793,36.3988
57.004,-2.15375,-11.3134,3.69761,32.3433,-47.1207,36.0626
57.009,-2.06836,-11.3592,3.84755,32.8839,-46.0831,35.2313
57.013,-2.10661,-11.4675,3.96112,33.4457,-44.8745,33.8338
57.018,-2.18087,-11.6486,4.0307,33.9655,-43.2293,32.0535
57.023,-2.24854,-11.8993,4.14454,34.4264,-40.9484,30.226
57.028,-2.32139,-12.1633,4.16232,34.2304,-37.8595,28.2629
57.033,-2.44001,-12.3761,4.1892,33.2195,-34.1414,26.0845
57.038,-2.45937,-12.5775,4.19529,32.2517,-30.0484,24.0079
57.043,-2.52694,-12.7684,4.17441,31.3861,-25.5973,21.8128
57.048,-2.55982,-12.9692,4.24994,30.5567,-20.9073,19.711
57.052,-2.55412,-13.1296,4.2357,29.5012,-16.0741,17.6901
57.057,-2.59706,-13.3064,4.24427,28.5032,-11.2277,15.8531
57.062,-2.59467,-13.4141,4.24643,27.5416,-6.14264,14.1091
57.067,-2.57996,-13.4755,4.21915,26.4507,-1.11857,12.5723
57.072,-2.59366,-13.5062,4.27495,25.0391,4.03389,11.4309
57.077,-2.55863,-13.5406,4.24577,23.592,9.15487,10.3839
57.082,-2.50034,-13.4604,4.32836,22.2773,14.103,9.36859
57.087,-2.45255,-13.4354,4.30208,20.7394,18.738,8.28332
57.092,-2.38539,-13.4382,4.29236,19.548,22.9773,7.11773
57.096,-2.35724,-13.4455,4.31906,18.4209,27.1435,5.7548
57.101,-2.39389,-13.5267,4.30611,17.2641,31.2069,4.30702
57.106,-2.40382,-13.5848,4.27994,15.8806,35.4285,3.14215
57.111,-2.37761,-13.6744,4.17947,13.9894,39.7041,2.39589
57.116,-2.42087,-13.6547,4.0707,12.0726,43.8504,1.99129
57.121,-2.43878,-13.6449,3.99607,9.81562,47.9244,2.14443
57.126,-2.50825,-13.5405,3.85924,7.39157,51.7282,2.8152
57.131,-2.56361,-13.3079,3.75501,4.70736,55.2171,3.91421
57.135,-2.57807,-13.0231,3.68037,2.03488,58.4039,5.90292
57.141,-2.54718,-12.6045,3.59313,-0.517078,60.9416,8.54883
57.145,-2.53174,-12.1965,3.58622,-3.09166,62.8934,11.3855
57.151,-2.48168,-11.7175,3.61913,-5.25756,64.4211,14.5501
57.155,-2.42694,-11.2585,3.58835,-7.27661,65.4141,17.8284
57.16,-2.40845,-10.9511,3.53676,-8.61328,66.3476,20.6338
57.166,-2.34126,-10.6947,3.437,-9.63911,67.4728,23.186
57.17,-2.21769,-10.5514,3.41671,-10.7029,68.7856,25.3922
57.176,-2.13858,-10.4996,3.48845,-11.5019,70.3718,27.3946
57.18,-2.02674,-10.4902,3.52436,-12.9055,71.9942,29.3
57.186,-1.80387,-10.5958,3.55751,-14.2547,73.8637,31.1504
57.19,-1.63226,-10.7896,3.5637,-15.9287,75.666,32.5802
57.196,-1.51799,-11.0474,3.74673,-17.6889,77.5598,33.9292
57.2,-1.3436,-11.3309,3.91595,-20.0231,79.4035,36.1105
57.206,-1.17578,-11.642,4.08286,-22.8603,81.2597,38.9348
57.211,-1.02789,-11.9707,4.1713,-25.7459,83.4165,41.3678
57.215,-0.911902,-12.0668,4.34388,-30.9088,85.6369,42.8474
57.221,-0.873042,-12.0063,4.44671,-36.8975,88.7737,43.0201
57.225,-0.73921,-11.9527,4.54893,-40.7246,92.2175,43.1222
57.231,-0.350546,-12.2164,4.74348,-41.832,94.7903,44.0358
57.235,0.0467254,-12.4686,5.09363,-44.8843,95.9324,43.9782
57.241,0.17671,-12.6506,5.25521,-50.1928,96.753,44.3056
57.245,0.294694,-12.8249,5.23227,-54.5316,96.6413,47.8421
57.25,0.628975,-12.939,5.14042,-56.2711,93.6722,53.8495
57.256,0.915726,-13.0355,4.97473,-56.2962,86.4148,59.6255
57.26,0.936608,-13.0825,4.91745,-55.5744,75.7075,65.6768
57.266,0.763813,-13.1058,4.91279,-54.4505,63.821,72.3148
57.27,0.460234,-13.0927,5.01653,-53.3041,53.1392,78.4948
57.276,0.151507,-13.0716,5.16744,-53.3032,45.5518,82.9482
57.28,-0.127013,-13.0225,5.1223,-55.429,40.7839,86.0422
57.285,-0.238639,-12.8734,4.99072,-58.8417,38.1911,89.1005
57.291,-0.156267,-12.6179,4.85921,-62.1259,36.5156,92.2762
57.295,-0.0693405,-12.1994,4.69394,-64.0294,34.7739,94.9632
57.301,-0.169669,-11.8098,4.59102,-64.2593,32.5305,97.3239
57.305,-0.273882,-11.4129,4.44263,-62.9873,29.5569,99.6512
57.311,-0.384942,-11.0862,4.39209,-60.6189,26.043,101.856
57.315,-0.455659,-10.7704,4.27878,-58.2028,22.0213,104.264
57.321,-0.498635,-10.5411,4.15018,-55.5446,17.6869,106.66
57.325,-0.51654,-10.3021,4.05286,-52.3491,12.7822,108.988
57.331,-0.539913,-10.0529,3.96922,-49.1197,7.71653,111.237
57.335,-0.624317,-9.81644,3.93267,-45.9054,2.80521,113.215
57.34,-0.695467,-9.59228,3.87534,-42.5399,-2.06329,115.265
57.345,-0.747035,-9.38316,3.80183,-39.5196,-5.94687,116.724
57.35,-0.807221,-9.2116,3.75275,-36.6575,-9.39032,117.837
57.355,-0.79732,-9.02526,3.68545,-33.8539,-12.213,118.701
57.36,-0.846492,-8.87149,3.7058,-31.4308,-14.7011,119.335
57.365,-0.875825,-8.70252,3.70772,-28.9966,-16.6982,119.546
57.37,-0.885978,-8.54414,3.69165,-26.5058,-18.2704,119.486
57.374,-0.887231,-8.3988,3.70555,-24.0521,-19.4476,119.267
57.379,-0.960552,-8.24732,3.71296,-21.914,-20.1561,118.81
57.384,-1.00598,-8.1334,3.74929,-19.835,-20.4512,117.916
57.389,-1.03168,-8.03684,3.73774,-18.14,-20.1777,116.555
57.394,-1.12127,-7.93691,3.82709,-16.5274,-19.4429,114.882
57.399,-1.17916,-7.85329,3.84245,-15.1828,-18.128,112.908
57.404,-1.22166,-7.78782,3.86064,-14.1653,-16.439,110.461
57.409,-1.26656,-7.76414,3.82688,-13.6895,-14.1382,107.857
57.413,-1.34755,-7.71004,3.85159,-13.2344,-11.6263,104.961
57.418,-1.39416,-7.63259,3.88771,-13.0079,-8.75224,101.705
57.423,-1.40622,-7.6013,3.87812,-13.1407,-5.76941,98.3107
57.428,-1.43626,-7.58899,3.87711,-13.1618,-2.7486,94.6556
57.433,-1.49582,-7.55369,3.87576,-13.4485,0.410592,90.7494
57.438,-1.50902,-7.56004,3.85011,-13.9546,3.84908,86.9326
57.443,-1.49853,-7.52736,3.79994,-14.3912,7.15795,82.9411
57.447,-1.51592,-7.4708,3.80296,-15.3044,10.5941,79.0494
57.452,-1.47436,-7.4765,3.79194,-16.0927,13.7362,75.3827
57.457,-1.43222,-7.37552,3.7238,-16.8014,16.6508,71.7884
57.462,-1.38065,-7.29438,3.65572,-17.4793,19.0193,68.1422
57.467,-1.33063,-7.26387,3.53924,-18.0087,21.0457,64.5956
57.472,-1.29992,-7.18438,3.5494,-18.3262,22.6716,61.153
57.477,-1.21583,-7.11098,3.44145,-18.4917,23.7065,57.8469
57.482,-1.0646,-7.11887,3.41213,-18.7915,24.1177,54.9923
57.486,-0.989267,-7.04845,3.32464,-19.0407,23.7869,52.58
57.491,-0.88435,-7.01588,3.30376,-18.8538,22.7349,50.407
57.496,-0.802724,-6.94704,3.2367,-18.4783,20.7117,48.7307
57.501,-0.716369,-6.88184,3.12067,-18.1021,18.0546,47.1196
57.506,-0.675636,-6.81266,3.1157,-17.6124,15.0088,45.5006
57.511,-0.64109,-6.79281,3.0796,-16.8101,11.7285,43.8815
57.516,-0.616552,-6.72776,3.11978,-16.0979,8.16951,42.4119
57.521,-0.601833,-6.72311,3.1021,-15.3349,4.48762,41.1177
57.526,-0.608199,-6.7378,3.06696,-14.4426,0.866818,39.6163
57.53,-0.561243,-6.76993,3.02749,-13.4951,-3.14066,38.1252
57.536,-0.49941,-6.84458,3.07231,-12.6353,-7.24918,36.5675
57.541,-0.45331,-6.88038,3.12725,-11.9108,-11.3476,35.396
57.546,-0.416772,-6.91147,3.18324,-11.4194,-15.4388,34.2971
57.551,-0.412318,-6.92672,3.18293,-11.0665,-19.508,32.9561
57.555,-0.366515,-6.94299,3.23498,-10.6903,-23.6254,31.4897
57.561,-0.364647,-6.96045,3.30723,-10.2982,-27.5152,29.4344
57.565,-0.367343,-7.02637,3.40187,-9.85792,-31.3091,27.1139
57.571,-0.323085,-7.1244,3.45704,-9.67559,-35.2399,25.0056
57.575,-0.286892,-7.24939,3.53734,-9.60008,-38.8685,22.5241
57.581,-0.2918,-7.3257,3.59364,-9.66309,-42.4752,19.8006
57.586,-0.242955,-7.40645,3.67797,-10.022,-46.0313,16.9431
57.59,-0.22008,-7.50431,3.71278,-10.2501,-49.3339,13.8645
57.596,-0.221248,-7.5719,3.76411,-10.7099,-52.659,10.4545
57.6,-0.239875,-7.71381,3.81506,-10.9995,-55.948,6.76576
57.606,-0.290322,-7.88938,3.87998,-11.299,-59.139,2.82972
57.61,-0.328122,-8.0207,3.94891,-11.719,-62.2998,-1.49634
57.616,-0.32952,-8.16708,4.02342,-12.2313,-65.2977,-5.7241
57.62,-0.367792,-8.35883,4.09681,-12.5741,-68.2447,-10.0288
57.625,-0.360815,-8.54639,4.17005,-12.9812,-71.3407,-14.5257
57.631,-0.373686,-8.76658,4.23115,-13.2478,-74.5034,-19.3863
57.636,-0.365742,-8.99646,4.32778,-13.4743,-77.6761,-24.1169
57.641,-0.351869,-9.2072,4.45777,-13.889,-80.8934,-28.4204
57.645,-0.332051,-9.31912,4.54864,-14.5978,-84.2644,-32.2153
57.651,-0.324435,-9.38378,4.57952,-15.2658,-87.6602,-36.082
57.655,-0.266528,-9.43245,4.62528,-15.768,-91.3752,-39.7955
57.661,-0.24436,-9.44037,4.66505,-15.976,-95.5553,-43.7505
57.666,-0.203645,-9.4983,4.76939,-15.9397,-99.8705,-47.9345
57.671,-0.135676,-9.637,4.87253,-15.7808,-104.26,-52.334
57.676,-0.0925336,-9.80381,4.96318,-15.3905,-108.85,-56.7919
57.68,-0.00749263,-10.0096,5.12782,-15.2044,-113.537,-61.2798
57.686,0.0539747,-10.3053,5.30625,-14.7742,-118.359,-65.9978
57.69,0.104204,-10.5959,5.44805,-14.4943,-123.017,-70.5984
57.696,0.181998,-10.9695,5.62213,-14.3128,-127.662,-75.3108
57.7,0.172456,-11.3523,5.80677,-14.258,-132.206,-80.2349
57.706,0.132961,-11.725,5.95865,-14.1945,-136.421,-85.164
57.711,0.0554768,-12.1633,6.12397,-14.1238,-140.294,-89.898
57.715,-0.031283,-12.5679,6.27226,-14.2654,-143.75,-94.5334
57.721,-0.171033,-12.9445,6.36039,-14.6779,-146.79,-99.0529
57.725,-0.29569,-13.2539,6.45811,-15.0065,-149.48,-103.543
57.73,-0.390138,-13.5615,6.53987,-15.1985,-151.75,-107.841
57.735,-0.49016,-13.7595,6.62507,-15.2735,-153.594,-111.599
57.74,-0.625789,-13.8715,6.63578,-15.7074,-154.885,-114.716
57.745,-0.828178,-13.791,6.57414,-16.4762,-155.686,-117.519
57.75,-1.02777,-13.6244,6.54522,-17.1575,-156.163,-119.867
57.755,-1.20109,-13.4167,6.41927,-17.1901,-156.317,-122.218
57.76,-1.45466,-13.1662,6.22469,-16.6801,-156.256,-124.49
57.765,-1.68262,-12.9441,6.08299,-15.9804,-155.736,-126.815
57.769,-2.00233,-12.7344,5.9057,-15.1784,-154.636,-128.868
57.774,-2.31652,-12.5012,5.75998,-14.1113,-152.818,-130.345
57.779,-2.60953,-12.2859,5.53893,-13.0381,-150.008,-131.49
57.784,-2.91108,-12.0433,5.3361,-11.8663,-146.368,-132.4
57.789,-3.17843,-11.7913,5.16163,-10.5432,-141.844,-133.117
57.794,-3.45969,-11.6051,4.91669,-8.91905,-136.809,-133.944
57.799,-3.66514,-11.4464,4.74065,-6.97409,-130.838,-134.655
57.804,-3.83913,-11.3964,4.59589,-4.76784,-124.122,-135.216
57.808,-3.93364,-11.3815,4.50037,-2.63298,-116.629,-135.467
57.813,-3.99547,-11.4214,4.46688,-0.384049,-108.46,-135.213
57.818,-3.96791,-11.5218,4.46857,1.59697,-99.8869,-134.215
57.823,-3.89405,-11.548,4.45051,3.10588,-90.9899,-132.301
57.828,-3.82705,-11.5958,4.50927,4.56154,-81.9257,-129.957
57.833,-3.70469,-11.6161,4.59807,5.92231,-72.8612,-127.097
57.838,-3.52403,-11.6758,4.65233,7.09938,-63.8827,-123.584
57.843,-3.34844,-11.6936,4.79905,8.3144,-55.092,-119.726
57.847,-3.09372,-11.7133,4.91001,9.13986,-46.6772,-115.233
57.852,-2.77796,-11.7687,4.99478,10.1214,-38.8802,-110.177
57.857,-2.5028,-11.7948,5.12363,10.7364,-31.7143,-104.798
57.862,-2.23637,-11.825,5.2571,11.004,-25.5983,-98.9934
57.867,-1.93973,-11.805,5.35366,11.1456,-20.3964,-92.4752
57.872,-1.65223,-11.7361,5.43208,10.7525,-16.3034,-85.305
57.877,-1.29253,-11.6584,5.51593,10.2309,-13.5244,-77.5955
57.881,-1.01919,-11.5536,5.54532,9.39783,-12.3827,-69.2865
57.886,-0.867104,-11.4383,5.53878,8.31069,-13.0872,-60.5838
57.891,-0.62818,-11.2771,5.48424,7.11711,-15.3463,-51.4531
57.896,-0.496262,-11.1438,5.41114,6.02655,-19.1191,-41.8413
57.901,-0.362339,-10.9828,5.34178,4.72115,-24.3366,-32.1605
57.906,-0.250768,-10.8094,5.29607,3.54659,-30.7608,-22.5564
57.911,-0.17111,-10.6372,5.22859,2.59975,-37.977,-13.1699
57.916,-0.184497,-10.5118,5.15702,1.62337,-46.1373,-3.99056
57.921,-0.23401,-10.4257,5.02162,0.710333,-54.578,4.80359
57.926,-0.318239,-10.356,4.96985,-0.140169,-62.8876,12.758
57.93,-0.48422,-10.2244,4.92337,-1.12487,-70.8201,20.0382
57.936,-0.632288,-10.1077,4.82304,-2.42421,-77.8542,27.6571
57.94,-0.681443,-9.95877,4.71484,-3.39659,-84.6436,35.4805
57.946,-0.748656,-9.8141,4.54901,-3.84171,-91.9054,42.9899
57.95,-0.873947,-9.64825,4.43642,-4.11093,-99.4242,49.6514
57.956,-1.02637,-9.48743,4.25316,-4.24783,-106.72,55.6884
57.961,-1.26888,-9.30453,4.13314,-4.07845,-113.559,61.6368
57.965,-1.43162,-9.1275,4.0442,-4.00216,-119.825,67.2293
57.971,-1.5937,-8.92473,3.95485,-3.48954,-125.588,72.3248
57.975,-1.7517,-8.73395,3.84756,-2.74936,-130.906,76.6685
57.981,-1.94589,-8.46183,3.80944,-1.80898,-135.48,80.349
57.985,-2.1194,-8.21453,3.80799,-0.726616,-139.31,83.3848
57.991,-2.27411,-8.02312,3.7919,0.478778,-142.61,85.7358
57.995,-2.42162,-7.86077,3.75336,1.4101,-144.863,87.3077
58,-2.53654,-7.67245,3.72025,2.55373,-146.293,88.2474
58.006,-2.65132,-7.50016,3.73756,3.34304,-147.051,88.8041
58.01,-2.74532,-7.37244,3.72927,3.92563,-147.069,88.6229
58.016,-2.80135,-7.25772,3.79592,4.62456,-146.472,88.1385
58.02,-2.86562,-7.14024,3.75518,5.15849,-145.57,87.2986
58.026,-2.90861,-7.02059,3.76648,5.62252,-144.142,85.977
58.03,-2.94962,-6.92075,3.81836,5.95258,-142.115,84.3709
58.036,-3.01991,-6.83375,3.85804,5.98518,-139.611,82.3777
58.041,-3.03873,-6.77783,3.87268,6.20977,-136.47,80.1171
58.046,-3.11361,-6.70811,3.88322,6.07649,-133.028,77.7038
58.051,-3.13333,-6.67707,3.84899,6.08608,-129.252,75.1001
58.055,-3.09655,-6.6605,3.93335,6.05855,-125.081,72.338
58.061,-3.04719,-6.58484,3.95544,5.65204,-121.003,69.6002
58.065,-3.03965,-6.53368,3.9908,5.31429,-117.039,66.8893
58.071,-3.01232,-6.53219,4.01395,5.17023,-112.865,64.1635
58.075,-3.01863,-6.53061,3.99354,5.1138,-108.812,61.1148
58.081,-2.99502,-6.58641,4.04263,5.17029,-105.133,58.2604
58.086,-2.9418,-6.65009,4.09095,5.23197,-101.51,55.4281
58.09,-3.00394,-6.75398,4.0144,5.78547,-97.5497,52.499
58.096,-3.0108,-6.97858,3.93392,6.64624,-93.7684,49.5475
58.1,-2.9621,-7.24137,3.93899,7.34441,-90.5208,46.9484
58.106,-2.84947,-7.52239,3.90941,7.66985,-87.6103,45.24
58.11,-2.73863,-7.70364,3.83193,8.25061,-85.1225,44.3941
58.116,-2.66576,-7.8719,3.6795,9.55858,-83.3649,43.6969
58.12,-2.72497,-8.07773,3.47725,11.1608,-82.0725,42.7581
58.125,-2.76906,-8.26097,3.41821,12.5662,-80.7564,41.5955
58.13,-2.70474,-8.49423,3.45447,13.6851,-79.2507,41.1376
58.135,-2.55001,-8.6333,3.56227,14.1749,-78.0274,41.7686
58.14,-2.32354,-8.64323,3.67817,14.5319,-77.632,43.4938
58.145,-2.10018,-8.53896,3.75668,14.737,-78.5024,45.8837
58.15,-1.91001,-8.35553,3.83358,15.3986,-80.5273,48.4158
58.155,-1.86707,-8.19248,3.90714,16.7773,-83.1843,50.8492
58.159,-1.87851,-8.06822,3.92255,18.5388,-86.2203,52.9059
58.164,-1.90538,-8.0704,4.01385,20.7479,-88.8826,54.3093
58.169,-1.96149,-8.12144,4.01599,23.0508,-90.8956,55.3328
58.174,-2.10097,-8.27969,3.87368,25.6107,-91.5194,55.812
58.179,-2.39501,-8.59761,3.58913,28.2315,-90.7443,55.3209
58.184,-2.66137,-8.9833,3.33573,30.7491,-88.6768,53.9588
58.189,-2.87212,-9.40833,3.15205,33.1265,-85.3202,52.2246
58.194,-2.97158,-9.82976,3.13211,34.3684,-81.2062,50.6705
58.199,-2.95829,-10.187,3.12953,35.2109,-76.5287,49.6271
58.203,-2.95602,-10.4244,3.14418,35.8747,-71.5968,48.6012
58.208,-2.92609,-10.5839,3.12709,36.3123,-66.7441,47.2667
58.213,-2.85126,-10.6835,3.1839,37.1559,-61.6996,45.1629
58.218,-2.85068,-10.8497,3.299,38.0507,-56.3962,42.3758
58.223,-2.87174,-11.0634,3.36535,38.9227,-50.4406,39.2453
58.228,-2.85325,-11.2617,3.39599,39.5729,-43.9866,35.7635
58.233,-2.82409,-11.4884,3.56053,39.6395,-37.1031,32.0082
58.238,-2.77746,-11.6941,3.61785,39.561,-30.1114,28.3921
58.242,-2.71241,-11.8853,3.66838,39.0351,-23.1119,24.5709
58.247,-2.67071,-12.0877,3.70953,38.5743,-16.2005,20.3505
58.252,-2.60183,-12.2725,3.72339,37.9553,-9.46794,16.0504
58.257,-2.5577,-12.4691,3.73949,37.4225,-2.8268,11.8312
58.262,-2.57168,-12.6609,3.79415,36.0197,3.5923,7.92069
58.267,-2.55816,-12.7587,3.76664,34.4083,9.55882,4.41195
58.272,-2.49789,-12.8354,3.7421,32.7697,15.2034,1.25902
58.277,-2.43934,-12.9418,3.74726,30.8014,20.4405,-1.68052
58.281,-2.44765,-12.9503,3.75363,28.9738,25.2143,-4.327
58.286,-2.35824,-12.9322,3.70047,27.2522,29.4784,-6.78792
58.291,-2.27565,-12.9543,3.67777,25.3757,33.3296,-9.0897
58.296,-2.16225,-12.9653,3.62393,23.7466,36.8118,-11.3819
58.301,-2.03755,-12.9475,3.65201,22.1084,39.9805,-13.4666
58.306,-1.96782,-12.9605,3.66768,20.3447,42.8391,-15.3073
58.311,-1.90882,-12.9753,3.61684,18.572,45.3841,-16.9403
58.315,-1.82944,-13.0129,3.56921,16.882,47.4674,-18.2622
58.321,-1.7578,-13.0183,3.46121,15.0121,49.2159,-18.8958
58.325,-1.65957,-12.9323,3.38134,13.1213,50.1745,-18.6961
58.331,-1.55879,-12.772,3.38289,11.1119,50.34,-17.977
58.336,-1.42954,-12.56,3.32568,9.2979,49.6703,-16.7527
58.34,-1.31321,-12.3205,3.35333,8.18539,47.9187,-15.4278
58.346,-1.20596,-12.1304,3.38889,7.33391,45.229,-14.1989
58.35,-1.18745,-11.9812,3.49816,6.56922,42.2107,-13.4806
58.356,-1.18795,-11.8909,3.56823,6.22361,39.0521,-13.0458
58.36,-1.28591,-11.9479,3.63006,5.77869,36.3169,-13.1777
58.366,-1.48438,-12.0515,3.72824,4.85987,34.4906,-13.8949
58.37,-1.73341,-12.1526,3.79279,3.46435,34.2518,-14.657
58.375,-2.07407,-12.2026,3.79967,1.42714,35.2855,-15.5521
58.381,-2.33008,-12.1822,3.78139,-1.06694,37.7109,-15.9978
58.385,-2.51407,-12.087,3.71289,-3.71981,40.8134,-16.1987
58.391,-2.67721,-11.9717,3.61261,-6.09869,44.1061,-16.1544
58.395,-2.7847,-11.7697,3.45687,-8.39591,47.3489,-16.2538
58.401,-2.90454,-11.512,3.41719,-10.3624,50.5875,-16.1119
58.405,-2.97988,-11.2435,3.34207,-12.306,54.0152,-15.504
58.411,-3.02477,-10.9557,3.34677,-13.8228,57.8682,-14.5939
58.416,-3.03736,-10.6885,3.34439,-15.2237,61.7325,-13.5182
58.421,-3.01884,-10.4121,3.34433,-16.6822,65.5838,-12.6263
58.426,-3.00041,-10.1821,3.39693,-17.9311,69.4759,-11.6813
58.43,-2.88602,-9.93639,3.46609,-18.9274,73.5618,-10.9711
58.436,-2.78,-9.78161,3.51732,-19.7389,77.5442,-10.0682
58.44,-2.6417,-9.77928,3.54222,-20.4498,81.0734,-9.00234
58.446,-2.3868,-9.71896,3.6458,-21.234,84.1398,-7.92108
58.45,-2.18273,-9.7027,3.70323,-22.249,86.772,-6.71629
58.456,-2.01886,-9.776,3.81779,-23.5,89.0263,-5.4105
58.461,-1.84167,-9.89396,3.94731,-24.7683,91.4798,-3.76903
58.465,-1.71849,-9.98904,4.03004,-25.964,93.5697,-2.06351
58.471,-1.56615,-10.1699,4.0859,-27.1029,95.4653,-0.361886
58.475,-1.42398,-10.4216,4.14838,-28.0542,97.4202,1.11463
58.481,-1.30101,-10.7101,4.26568,-29.07,99.226,2.39876
58.485,-1.1609,-11.0367,4.36119,-30.5244,100.749,3.73927
58.491,-1.06464,-11.3484,4.49167,-32.2724,102.104,5.38655
58.495,-0.936602,-11.4981,4.51474,-35.256,102.575,7.26076
58.5,-0.69077,-11.6553,4.53006,-37.2217,102.322,9.39485
58.506,-0.398426,-11.8653,4.70004,-38.2013,101.064,11.9201
58.51,-0.34206,-12.0394,4.89844,-40.0573,99.2112,14.1541
58.516,-0.332013,-12.213,4.91564,-41.7554,97.3776,17.7159
58.52,-0.166211,-12.3758,4.94848,-41.8238,94.126,22.9562
58.525,-0.00671294,-12.4886,4.93998,-40.9335,88.4843,28.4315
58.53,0.0694712,-12.5553,4.94948,-40.5963,81.0586,33.5384
58.535,0.064667,-12.5854,4.95315,-41.3465,73.0265,38.7047
58.54,-0.0684647,-12.4949,4.95181,-43.0744,66.3275,43.4741
58.545,-0.165895,-12.2459,5.00117,-44.9888,61.3964,47.2636
58.55,-0.224251,-12.0246,5.04981,-46.1718,58.1694,50.3579
58.554,-0.225509,-11.7822,5.02179,-46.8615,55.4724,53.3409
58.559,-0.148036,-11.5856,4.97713,-47.1946,52.5039,56.8803
58.564,-0.0651207,-11.368,4.86724,-46.9481,48.5135,60.5339
58.569,-0.0886469,-11.0716,4.68165,-46.2347,43.2559,64.3749
58.574,-0.146383,-10.7624,4.6268,-44.8328,37.2484,67.8306
58.579,-0.322452,-10.5097,4.47141,-43.1602,31.4428,70.9033
58.584,-0.480273,-10.2875,4.37773,-41.2373,26.2722,73.6901
58.589,-0.622223,-10.0716,4.3034,-39.3416,22.0176,76.2985
58.593,-0.679969,-9.91179,4.19873,-37.558,18.3441,78.9006
58.598,-0.723825,-9.72107,4.10343,-35.7049,15.16,81.0608
58.603,-0.794483,-9.53858,3.95505,-33.5849,12.4267,82.8013
58.608,-0.872447,-9.40808,3.8206,-31.5672,9.95428,84.3929
58.613,-0.943436,-9.21858,3.76728,-29.5328,7.91651,85.5835
58.618,-0.992626,-9.05111,3.70553,-27.6267,6.40689,86.3102
58.623,-1.05049,-8.95498,3.62294,-25.675,5.44965,86.9226
58.628,-1.05778,-8.82644,3.63515,-23.9731,5.30284,87.4743
58.632,-1.06873,-8.66036,3.59969,-22.5581,5.52012,87.6844
58.637,-1.09042,-8.54349,3.53451,-21.2234,5.75764,87.6346
58.642,-1.13919,-8.41159,3.52608,-19.7632,6.30518,87.3408
58.647,-1.17173,-8.32412,3.49343,-18.4091,7.14019,86.4718
58.652,-1.17292,-8.27712,3.53341,-17.4198,8.14029,85.4418
58.657,-1.2874,-8.19038,3.54401,-16.7991,9.55442,84.214
58.662,-1.34028,-8.15992,3.58068,-16.2163,11.1564,82.64
58.667,-1.42146,-8.13721,3.59176,-15.6374,13.0071,81.0292
58.672,-1.48648,-8.09174,3.60412,-15.3642,15.0064,79.0373
58.676,-1.51375,-8.0944,3.56512,-15.3393,17.1673,76.8482
58.681,-1.57788,-8.12498,3.55557,-15.5906,19.5794,74.3628
58.686,-1.63389,-8.04632,3.54524,-15.9676,22.3004,71.8542
58.691,-1.66923,-8.02735,3.51041,-16.6701,24.9692,69.1269
58.696,-1.70969,-8.03636,3.44577,-17.3899,27.6148,66.3459
58.701,-1.70649,-7.98974,3.41917,-18.0917,30.2687,63.4167
58.706,-1.67545,-7.94839,3.38582,-18.7336,33.1133,60.4552
58.711,-1.63621,-7.91358,3.34717,-19.6359,35.4209,57.5324
58.715,-1.59697,-7.86131,3.3391,-20.2854,37.303,54.6419
58.721,-1.58303,-7.84897,3.30204,-21.1043,39.1341,51.8284
58.725,-1.50896,-7.83129,3.19961,-21.7772,40.4454,49.3305
58.731,-1.44993,-7.76265,3.18895,-22.2147,41.3081,46.8111
58.735,-1.38379,-7.65591,3.1813,-22.6612,41.8573,44.4995
58.741,-1.30855,-7.68029,3.16742,-23.212,41.8706,42.5221
58.745,-1.19765,-7.64721,3.1335,-23.5123,41.2809,40.7931
58.75,-1.06443,-7.64295,3.06123,-23.6498,39.9873,39.2457
58.756,-0.920129,-7.65761,3.04252,-23.8159,38.1793,38.0684
58.76,-0.891563,-7.62083,3.05005,-23.9246,36.1621,36.6853
58.766,-0.862006,-7.59641,3.01359,-24.0959,33.7916,35.7524
58.77,-0.826306,-7.57007,3.04508,-24.1114,31.1999,34.7257
58.776,-0.800337,-7.55787,2.96606,-24.3917,28.3351,33.9027
58.78,-0.704245,-7.52711,2.98149,-24.466,25.1412,33.363
58.786,-0.604123,-7.50716,2.99484,-24.4555,21.6633,32.9184
58.791,-0.551504,-7.48319,3.01642,-24.6303,17.6847,32.75
58.796,-0.505542,-7.50297,3.02093,-24.4776,13.0947,32.4617
58.801,-0.436163,-7.47788,3.08014,-24.3316,8.36861,32.165
58.805,-0.38263,-7.54365,3.16193,-24.0033,3.13936,31.8876
58.811,-0.293057,-7.57266,3.21071,-23.675,-2.0899,31.6102
58.815,-0.234065,-7.63116,3.30936,-23.4338,-7.43501,31.0642
58.821,-0.156723,-7.69139,3.38648,-23.4558,-12.8609,30.7078
58.825,-0.126533,-7.83433,3.44925,-23.3713,-18.1924,30.068
58.831,-0.140627,-7.95778,3.5452,-23.3247,-23.3362,29.0821
58.836,-0.164873,-8.086,3.6574,-23.2654,-28.4153,27.9254
58.84,-0.170371,-8.23784,3.71927,-23.2816,-33.5158,26.7331
58.846,-0.137652,-8.37248,3.85386,-23.4282,-38.2658,25.2931
58.85,-0.119789,-8.52687,4.00723,-23.732,-42.9872,23.9611
58.856,-0.110292,-8.7061,4.15227,-23.9723,-47.767,22.6337
58.86,-0.017569,-8.78447,4.23223,-24.1733,-52.764,21.2486
58.866,0.0441946,-8.91906,4.4118,-24.3456,-57.8657,19.7607
58.87,0.0791094,-9.06066,4.55413,-24.3779,-63.0192,18.1109
58.875,0.0912949,-9.24009,4.59495,-24.4981,-68.2737,16.3944
58.881,0.0955582,-9.3964,4.7209,-24.3195,-73.416,14.394
58.885,0.0926521,-9.50616,4.89986,-24.1696,-78.4536,12.4964
58.891,0.0714797,-9.62038,4.95602,-24.1596,-83.4395,10.7606
58.895,0.00634534,-9.70459,4.98083,-23.9847,-88.1106,9.11292
58.901,-0.0547582,-9.75105,4.98259,-23.7673,-92.6142,7.37916
58.905,-0.0824171,-9.71443,5.00299,-23.4267,-96.9853,5.61758
58.911,-0.174041,-9.67692,5.0274,-23.0446,-101.396,3.58232
58.915,-0.230686,-9.62411,5.01754,-22.0359,-105.465,1.26555
58.92,-0.311243,-9.62788,4.93643,-21.0882,-109.313,-1.47367
58.925,-0.475208,-9.5834,4.9051,-19.8696,-112.959,-4.59599
58.93,-0.534008,-9.65669,4.85237,-18.3726,-116.06,-7.90513
58.935,-0.619399,-9.72055,4.84231,-16.7835,-118.705,-11.5797
58.94,-0.706986,-9.82595,4.84544,-15.3202,-121.262,-15.6673
58.945,-0.771774,-9.99693,4.84771,-13.6549,-123.504,-20.1647
58.95,-0.838287,-10.1664,4.82813,-12.1122,-125.052,-24.7139
58.954,-0.960102,-10.3598,4.89122,-10.4046,-126.284,-29.1753
58.959,-1.08923,-10.5616,4.81878,-8.84842,-126.941,-33.9745
58.964,-1.20407,-10.7668,4.82483,-7.29457,-127.155,-38.825
58.969,-1.23042,-10.9078,4.86701,-6.04626,-126.778,-43.2774
58.974,-1.30139,-10.9475,4.8364,-5.13298,-125.909,-47.4164
58.979,-1.36315,-10.9052,4.82727,-4.50336,-124.689,-51.2687
58.984,-1.3615,-10.8742,4.81339,-3.65136,-123.362,-55.2388
58.988,-1.35929,-10.8153,4.83077,-2.82576,-122.373,-59.055
58.993,-1.33821,-10.7474,4.8273,-1.68701,-121.633,-63.0732
58.998,-1.32668,-10.7719,4.8668,-0.323215,-121.006,-66.768
59.003,-1.35596,-10.8507,4.84497,1.0206,-120.581,-70.3014
59.008,-1.43812,-10.8817,4.89045,2.24827,-120.151,-73.7976
59.013,-1.59211,-11.0094,4.89209,3.42746,-118.977,-76.9064
59.018,-1.74245,-11.0339,4.75002,4.24966,-117.072,-79.5908
59.023,-1.92561,-11.0312,4.64495,4.78749,-114.8,-81.7869
59.027,-2.0756,-10.9928,4.53008,5.37177,-112.386,-83.6419
59.032,-2.25296,-10.9064,4.387,6.08161,-109.44,-85.3514
59.037,-2.40153,-10.8363,4.209,6.82324,-106.214,-87.1922
59.042,-2.53652,-10.7817,4.02781,7.80387,-102.845,-88.8952
59.047,-2.66002,-10.7506,3.90201,8.97301,-98.9859,-90.2465
59.052,-2.76703,-10.7348,3.73395,10.1902,-94.7936,-91.271
59.057,-2.81654,-10.7633,3.60987,11.2368,-90.6379,-92.0175
59.062,-2.8117,-10.7693,3.52925,12.2204,-86.2014,-92.3783
59.067,-2.82822,-10.7402,3.4894,12.9289,-81.7027,-92.1904
59.071,-2.80251,-10.6561,3.49919,13.6614,-77.442,-91.2848
59.076,-2.75304,-10.6314,3.51059,14.5298,-73.5879,-90.108
59.081,-2.63314,-10.5951,3.52135,15.5963,-70.1844,-88.4555
59.086,-2.57865,-10.5885,3.61516,16.2818,-67.0501,-86.562
59.091,-2.45891,-10.5799,3.72499,16.7986,-63.7597,-84.4041
59.096,-2.37786,-10.6128,3.84358,17.2581,-60.8791,-81.7733
59.101,-2.28138,-10.665,3.94912,17.1979,-58.0239,-78.7549
59.106,-2.16775,-10.6719,4.07309,16.9155,-55.0521,-75.2291
59.11,-2.07133,-10.6744,4.17352,16.4326,-52.2044,-71.3074
59.116,-1.95628,-10.6981,4.25533,15.6495,-49.6614,-67.0874
59.12,-1.79538,-10.6907,4.35234,14.7166,-47.5876,-62.6857
59.125,-1.6615,-10.6869,4.45968,13.6099,-45.9201,-57.7748
59.131,-1.43302,-10.6692,4.57935,12.3052,-44.818,-52.4168
59.135,-1.24964,-10.6766,4.62106,11.2087,-44.4865,-46.7246
59.141,-1.07573,-10.6457,4.70917,10.007,-44.8981,-40.8857
59.145,-0.923511,-10.6611,4.7644,8.68958,-45.9399,-34.9452
59.151,-0.769942,-10.6921,4.79327,7.42766,-47.7653,-28.3379
59.155,-0.630866,-10.6489,4.81661,6.24758,-50.2596,-21.6071
59.161,-0.515737,-10.6612,4.78461,5.00314,-53.522,-14.8014
59.166,-0.38013,-10.6987,4.72413,3.94947,-57.5781,-7.71512
59.171,-0.342019,-10.684,4.69999,3.03369,-62.4825,-0.307336
59.176,-0.356714,-10.6762,4.61972,2.25856,-68.0725,7.00375
59.18,-0.328548,-10.6224,4.52749,1.91627,-74.1496,14.3154
59.186,-0.374161,-10.5748,4.48909,1.9688,-80.5264,21.2814
59.19,-0.496395,-10.522,4.42973,2.23898,-86.9782,27.5156
59.196,-0.596543,-10.4448,4.37445,2.54663,-92.8242,32.7825
59.2,-0.759957,-10.3896,4.34377,2.64915,-98.1332,37.9537
59.206,-0.781706,-10.2716,4.29445,2.70422,-103.332,43.578
59.211,-0.825883,-10.1447,4.15604,3.39047,-108.849,49.4127
59.215,-0.8891,-10.0233,4.08605,4.41988,-114.75,54.5384
59.221,-1.04079,-9.90014,3.98958,5.41788,-120.771,58.5474
59.225,-1.23242,-9.77036,3.95763,6.67823,-126.301,61.9121
59.231,-1.40614,-9.63787,3.90236,8.14954,-130.977,65.0484
59.235,-1.49729,-9.55745,3.89179,9.66691,-135.117,67.8685
59.241,-1.61397,-9.39765,3.90422,11.3528,-138.793,70.1566
59.245,-1.72491,-9.285,3.87526,12.6232,-142.182,72.1087
59.25,-1.90757,-9.16945,3.85743,13.795,-145.162,73.2922
59.256,-2.09515,-9.0156,3.88455,14.9809,-147.265,74.0233
59.26,-2.24787,-8.86146,3.87845,16.0546,-148.391,74.0916
59.266,-2.40085,-8.7375,3.87458,16.9261,-148.818,73.6462
59.27,-2.4786,-8.60682,3.8053,17.7027,-148.243,72.5914
59.276,-2.60972,-8.48866,3.80773,18.5162,-147.048,70.7713
59.28,-2.72596,-8.3868,3.71438,18.9375,-144.995,68.2227
59.286,-2.85821,-8.37229,3.69114,19.4895,-142.069,65.1854
59.291,-2.97573,-8.33569,3.6808,19.7863,-138.498,61.6752
59.296,-3.11497,-8.2831,3.53453,19.9596,-133.821,57.6588
59.301,-3.22732,-8.35664,3.39041,19.9633,-128.577,53.452
59.305,-3.26818,-8.4098,3.34495,19.8542,-122.959,49.0514
59.31,-3.24056,-8.42784,3.371,19.3486,-117.456,44.621
59.315,-3.2275,-8.43661,3.39776,18.4815,-111.799,40.6578
59.32,-3.15396,-8.35864,3.4328,17.5813,-106.394,37.2296
59.325,-3.11651,-8.32122,3.38817,16.8316,-101.153,33.6852
59.33,-3.03412,-8.27751,3.30993,16.1139,-96.251,30.2765
59.335,-2.95253,-8.23864,3.31022,15.3022,-91.3778,26.9801
59.34,-2.88609,-8.21743,3.29585,14.2493,-86.8264,23.7621
59.345,-2.85218,-8.20592,3.29077,13.3781,-82.5411,21.1549
59.349,-2.65896,-8.2065,3.28278,12.4467,-79.0506,19.049
59.354,-2.51884,-8.19432,3.21573,11.7515,-76.4202,17.3763
59.359,-2.42372,-8.12122,3.20777,11.0988,-74.8603,16.1519
59.364,-2.42751,-8.08019,3.20763,10.4416,-73.8779,14.97
59.369,-2.51389,-8.02202,3.10167,10.1414,-72.785,13.486
59.374,-2.6394,-7.98356,3.03324,10.2256,-71.6565,12.0006
59.379,-2.81841,-7.97646,2.92495,10.2567,-69.9637,10.2889
59.384,-2.94042,-8.06041,2.78301,10.4943,-67.9959,8.39147
59.388,-3.01981,-8.11124,2.66195,10.7563,-65.6466,6.9458
59.393,-3.01947,-8.2154,2.60881,10.9996,-63.2907,5.85017
59.398,-2.97738,-8.27645,2.58883,11.1568,-61.24,5.33034
59.403,-2.89875,-8.27143,2.58293,11.408,-59.5563,5.35467
59.408,-2.7882,-8.28366,2.55235,12.1918,-58.1794,5.47723
59.413,-2.68976,-8.32947,2.51841,13.2874,-57.2444,5.41191
59.418,-2.56982,-8.404,2.65321,14.209,-56.3189,5.19915
59.423,-2.4302,-8.50842,2.83806,15.2629,-55.5664,5.01798
59.427,-2.35399,-8.65486,2.92007,16.1012,-54.7835,4.96309
59.432,-2.30312,-8.75658,3.02914,16.6339,-53.6298,4.91667
59.437,-2.3125,-8.83508,3.05517,17.0416,-52.1821,4.64513
59.442,-2.34192,-8.89298,3.11147,17.2653,-50.646,3.97905
59.447,-2.40146,-8.95483,3.15204,17.7445,-48.7535,2.66007
59.452,-2.51812,-9.13883,3.19853,18.4004,-46.2922,0.414002
59.457,-2.61265,-9.43162,3.21401,19.1847,-43.358,-2.49394
59.461,-2.72375,-9.80879,3.21686,19.6911,-39.7462,-5.95103
59.466,-2.84381,-10.2028,3.25709,19.8986,-35.8497,-9.78068
59.471,-2.89861,-10.5635,3.26179,19.7693,-31.0365,-13.55
59.476,-2.99796,-10.8553,3.2294,19.2064,-25.9436,-17.5075
59.481,-3.09536,-11.1182,3.2166,18.5079,-20.4437,-21.7353
59.486,-3.19518,-11.4043,3.19827,18.0634,-14.78,-26.6017
59.491,-3.26308,-11.7251,3.12466,18.0169,-9.03082,-31.8422
59.496,-3.35821,-12.1109,3.11515,18.1283,-3.32515,-37.3927
59.5,-3.44874,-12.4619,3.16536,17.9506,2.56713,-43.0686
59.506,-3.54306,-12.803,3.26697,17.2193,8.5949,-48.2766
59.51,-3.5592,-13.1036,3.30935,15.8547,14.9859,-53.089
59.516,-3.5692,-13.2876,3.40835,14.3527,21.2095,-57.2992
59.52,-3.53262,-13.4469,3.55778,12.727,26.9188,-60.6229
59.526,-3.39171,-13.5347,3.68062,11.0342,31.9195,-63.0644
59.53,-3.27593,-13.5475,3.82821,9.16388,36.144,-64.7662
59.536,-3.10986,-13.5132,3.93918,7.39299,39.326,-65.6343
59.541,-2.94667,-13.4617,4.11988,5.67614,41.532,-65.8213
59.546,-2.81838,-13.4802,4.21144,4.02002,42.8981,-65.3188
59.551,-2.72398,-13.4443,4.31774,2.31496,43.5639,-64.082
59.555,-2.57669,-13.3903,4.3664,0.362166,43.5979,-61.7291
59.561,-2.39776,-13.299,4.44858,-1.77326,43.1342,-58.2699
59.565,-2.23932,-13.169,4.47718,-3.76796,42.2072,-54.5176
59.571,-2.05766,-13.0605,4.48573,-5.1716,40.9718,-50.6854
59.575,-1.90626,-12.9709,4.47962,-6.60766,39.471,-46.5198
59.581,-1.80507,-12.9471,4.46375,-7.55119,37.6736,-42.3862
59.586,-1.69912,-12.9406,4.481,-8.42803,35.584,-38.0093
59.59,-1.68167,-12.9983,4.46215,-9.43025,33.4066,-32.9989
59.596,-1.56633,-13.059,4.51625,-10.7349,31.5882,-27.3518
59.6,-1.53951,-13.0383,4.47137,-12.0256,29.6451,-21.0311
59.606,-1.52034,-13.0003,4.43243,-13.4336,27.7206,-14.4722
59.61,-1.54245,-12.8615,4.39605,-14.8314,25.9203,-7.27673
59.616,-1.6021,-12.6482,4.29612,-16.2361,24.2062,0.299974
59.62,-1.64638,-12.3869,4.20861,-17.6534,22.4275,8.04746
59.625,-1.65318,-12.0534,4.13764,-18.8119,20.3743,16.0374
59.631,-1.62144,-11.7097,4.04435,-19.8486,18.261,24.0139
59.635,-1.60555,-11.2588,4.00245,-20.4927,16.2896,31.5936
59.641,-1.69022,-10.8582,3.88425,-20.714,14.548,38.6597
59.645,-1.82706,-10.5172,3.79783,-21.1,12.8734,44.7791
59.651,-1.98251,-10.1026,3.82174,-21.5882,12.0785,50.4827
59.655,-2.04899,-9.79741,3.77148,-21.518,11.9477,56.0653
59.661,-2.05646,-9.5731,3.66077,-20.8283,12.0229,61.3581
59.666,-2.05248,-9.37103,3.62127,-20.1487,11.9739,66.0142
59.671,-2.03324,-9.29933,3.62763,-19.3625,11.797,69.9972
59.676,-2.03437,-9.25349,3.65176,-18.5063,12.0946,73.3366
59.68,-2.05697,-9.27115,3.67761,-17.8666,12.8342,76.3474
59.686,-2.0421,-9.31366,3.76189,-17.0524,13.9651,78.6471
59.69,-2.01514,-9.42352,3.77878,-16.4027,16.0042,80.1228
59.696,-2.00768,-9.59919,3.86851,-16.071,18.7312,80.9192
59.7,-2.00516,-9.82008,3.96301,-16.068,22.2589,80.9911
59.705,-2.04184,-10.0807,3.96763,-16.3737,26.3914,80.8329
59.71,-2.05386,-10.3583,4.05324,-17.0187,30.8185,80.1719
59.715,-2.0855,-10.6558,4.0939,-17.7462,35.7071,79.1998
59.72,-2.13388,-10.9545,4.09697,-18.61,40.7953,77.7698
59.725,-2.12999,-11.1736,4.19569,-19.7041,46.0534,75.9943
59.73,-2.05013,-11.4721,4.33673,-21.0615,51.0084,74.0187
59.735,-2.03726,-11.7539,4.47051,-22.7625,55.9028,71.9727
59.739,-1.97178,-11.9807,4.57436,-24.5929,60.514,69.7441
59.744,-1.87359,-12.1664,4.68251,-26.7872,64.6563,67.4197
59.749,-1.82854,-12.3381,4.74747,-28.9967,68.3341,65.0928
59.754,-1.80215,-12.5061,4.80051,-31.1965,71.6917,62.6233
59.759,-1.74328,-12.5971,4.86967,-33.627,74.6149,60.2773
59.764,-1.68093,-12.63,4.86364,-36.0065,76.7963,58.3738
59.769,-1.61158,-12.5913,4.84075,-38.2649,78.3136,56.9256
59.774,-1.48642,-12.4819,4.81283,-40.3587,78.9226,56.3016
59.779,-1.3719,-12.292,4.74273,-42.0696,78.1369,56.2246
59.783,-1.2168,-12.0829,4.60761,-42.9964,76.4266,56.2923
59.788,-1.199,-11.8176,4.54177,-43.6835,74.004,56.1734
59.793,-1.11346,-11.528,4.4816,-44.1116,71.3069,56.2971
59.798,-1.04396,-11.215,4.36751,-44.0578,68.6484,56.7333
59.803,-0.948088,-10.9552,4.29508,-43.7261,65.9311,57.4515
59.808,-0.886729,-10.734,4.21235,-43.1785,62.7869,58.7002
59.813,-0.814251,-10.4842,4.14638,-42.6051,59.3752,60.264
59.818,-0.76546,-10.2249,4.08396,-42.0937,55.5954,62.0761
59.822,-0.684194,-9.97222,3.99755,-41.1304,51.7662,64.3179
59.827,-0.65823,-9.73079,3.89582,-39.9143,47.7339,66.9814
59.832,-0.675039,-9.48412,3.88192,-38.3545,43.7622,69.7155
59.837,-0.650396,-9.24078,3.88866,-36.7789,39.6213,72.5174
59.842,-0.566277,-9.01789,3.83051,-35.2654,35.7309,75.3007
59.847,-0.55374,-8.85671,3.85486,-33.5869,31.9332,77.7824
59.852,-0.568033,-8.66773,3.90315,-31.9101,28.562,80.0113
59.856,-0.577366,-8.58424,3.88102,-30.421,25.7505,82.1981
59.861,-0.589985,-8.46155,3.95738,-29.2745,23.0857,84.5022
59.866,-0.586123,-8.30568,3.97051,-28.0563,20.6913,86.805
59.871,-0.609464,-8.1362,3.95938,-26.8427,18.3383,88.8834
59.876,-0.676452,-8.0049,3.94078,-25.4566,16.1992,90.4667
59.881,-0.741306,-7.89692,3.91521,-24.1463,14.0386,92.0145
59.886,-0.810126,-7.81042,3.92742,-22.886,11.9862,93.1851
59.891,-0.861969,-7.71003,3.94446,-21.632,10.4018,93.8783
59.895,-0.897128,-7.6111,3.90229,-20.5431,9.12147,94.2163
59.901,-0.981508,-7.5204,3.92862,-19.5881,8.44046,94.2697
59.905,-1.01648,-7.39009,3.90007,-18.6991,8.2592,94.2677
59.911,-1.02529,-7.2959,3.87861,-17.7837,8.19243,93.7221
59.916,-1.04911,-7.2043,3.84135,-16.7929,7.92478,92.8225
59.921,-1.08153,-7.13287,3.85915,-15.8151,7.98918,91.4372
59.926,-1.1258,-7.11829,3.76379,-14.7307,8.14796,89.7684
59.93,-1.25753,-7.11054,3.71064,-13.2039,8.73721,87.4235
59.936,-1.41599,-7.20938,3.6305,-11.8187,9.58245,84.5978
59.94,-1.52119,-7.34195,3.53131,-10.6078,11.0372,81.3576
59.946,-1.59302,-7.47366,3.42638,-9.5422,13.2192,77.9895
59.95,-1.68415,-7.62736,3.30997,-8.57802,15.8691,74.6602
59.956,-1.68919,-7.75858,3.17771,-7.79773,18.6076,70.9363
59.961,-1.70476,-7.83784,3.15164,-7.29907,21.0349,67.1606
59.965,-1.75615,-7.90997,3.07424,-7.02734,23.3979,63.2782
59.971,-1.68519,-7.95377,3.06469,-6.7888,25.2882,59.5413
59.975,-1.58245,-7.94529,3.08758,-6.40575,26.4661,56.1342
59.981,-1.50264,-7.90381,3.08189,-6.20784,27.1433,53.0032
59.985,-1.37996,-7.79901,3.09485,-6.04321,26.7287,50.2848
59.991,-1.25198,-7.65229,3.12066,-5.48268,25.6029,47.6757
59.995,-1.13115,-7.49513,3.12251,-4.94489,23.8913,45.2572
60,-1.03452,-7.38767,3.14822,-4.18066,21.4176,43.025
60.006,-0.981949,-7.29652,3.19526,-3.47247,18.5043,40.8619
60.01,-0.919669,-7.21358,3.19369,-2.90356,15.6278,38.6587
60.016,-0.931405,-7.10093,3.25775,-2.32242,12.831,36.4865
60.02,-0.920346,-7.02269,3.26939,-1.79894,10.021,34.1307
60.026,-0.878719,-7.01211,3.2731,-1.28523,7.53125,31.9172
60.03,-0.83081,-6.97198,3.24568,-0.935666,4.93402,29.8033
60.036,-0.823876,-6.98267,3.2045,-0.497616,2.42291,27.5543
60.041,-0.870257,-7.02448,3.1886,-0.0928948,0.0579384,25.1837
60.046,-0.882212,-7.06155,3.13771,0.28527,-2.02486,22.6998
60.051,-0.90607,-7.11451,3.17918,0.928898,-3.84936,19.8103
60.055,-0.886059,-7.31458,3.1665,1.49832,-5.5028,16.871
60.061,-0.91917,-7.43093,3.2329,1.64095,-6.74032,13.752
60.065,-0.912321,-7.58502,3.28628,1.86675,-7.83533,10.4751
60.071,-0.943903,-7.75164,3.33033,1.97141,-8.88517,7.00991
60.075,-0.971343,-7.90029,3.28906,1.96706,-9.81028,3.38755
60.081,-0.975633,-8.0468,3.40268,2.07378,-10.9049,-0.683213
60.086,-0.925269,-8.23891,3.58357,2.15314,-11.9246,-5.05488
60.09,-0.861211,-8.44888,3.72961,2.15151,-12.9093,-9.48477
60.096,-0.789131,-8.63074,3.86637,1.96083,-14.1458,-13.6753
60.1,-0.724902,-8.77819,3.97448,1.55604,-15.1595,-17.7538
60.106,-0.706522,-8.90822,4.04642,1.0075,-16.7138,-21.8298
60.11,-0.657557,-9.03988,4.12001,0.678373,-18.5474,-25.9951
60.116,-0.632758,-9.13893,4.24181,0.769074,-20.3139,-30.2563
60.12,-0.611051,-9.32185,4.29738,1.04911,-22.4475,-34.4897
60.125,-0.63762,-9.52414,4.3933,1.22904,-24.7618,-38.8209
60.131,-0.641331,-9.67864,4.46118,1.47943,-26.9982,-43.1391
60.135,-0.680047,-9.88332,4.50219,1.84633,-29.2383,-47.4936
60.141,-0.70785,-10.0724,4.5928,2.22689,-31.2062,-51.8312
60.145,-0.715255,-10.2853,4.67075,2.51359,-33.2038,-56.0563
60.151,-0.704009,-10.471,4.70913,2.8594,-34.9958,-60.1117
60.155,-0.694608,-10.6528,4.75733,3.51999,-36.8449,-64.3833
60.161,-0.722298,-10.8927,4.83721,4.34842,-38.8355,-68.7177
60.166,-0.71765,-11.2204,4.88455,5.36222,-40.9444,-73.0612
60.171,-0.70537,-11.4631,5.01256,6.62207,-42.7733,-77.2584
60.176,-0.711118,-11.7773,5.05745,7.4916,-44.3443,-80.8856
60.18,-0.772487,-11.9325,5.14978,8.07009,-45.6841,-84.0324
60.186,-0.8431,-12.0414,5.12715,8.07374,-46.4403,-86.4124
60.19,-0.908189,-12.0297,5.09423,8.37411,-47.0395,-88.4708
60.196,-0.966816,-11.957,5.04377,8.88862,-47.8617,-90.6412
60.2,-1.00811,-11.8912,4.9852,9.78373,-49.0182,-92.5827
60.206,-1.02422,-11.8179,4.92616,10.875,-50.1837,-94.0985
60.211,-1.12361,-11.7833,4.82912,12.2743,-51.32,-95.4492
60.215,-1.23631,-11.7875,4.67698,13.7804,-52.3618,-97.0831
60.221,-1.39698,-11.7822,4.54718,15.3119,-53.0521,-98.6696
60.225,-1.50781,-11.8039,4.46729,16.7174,-53.1962,-99.6872
60.231,-1.60839,-11.7571,4.3491,18.0546,-53.0186,-100.545
60.235,-1.78199,-11.698,4.12405,19.2313,-52.3406,-100.941
60.241,-1.94356,-11.6078,3.80547,20.73,-51.1545,-100.969
60.245,-2.11425,-11.5359,3.44332,22.5298,-49.6787,-101.496
60.25,-2.31553,-11.5809,2.97823,24.9092,-47.9863,-102.443
60.256,-2.46731,-11.6458,2.65809,27.5895,-45.7823,-103.501
60.26,-2.50436,-11.7449,2.48427,29.3464,-43.6177,-103.618
60.266,-2.41874,-11.7343,2.4519,29.6104,-41.5844,-101.737
60.27,-2.21834,-11.5173,2.42934,29.1313,-39.8268,-97.9008
60.276,-1.90725,-11.1479,2.42484,28.3894,-39.7847,-92.6843
60.28,-1.63936,-10.7377,2.45489,28.2009,-41.7202,-86.9324
60.286,-1.34762,-10.3717,2.48535,28.5965,-45.5605,-80.9643
60.291,-1.10739,-10.0045,2.60821,29.3826,-50.8966,-75.0322
60.296,-0.930984,-9.75347,2.71486,30.3179,-57.209,-68.9352
60.3,-0.795589,-9.63181,2.89605,31.2962,-63.9875,-62.8591
60.305,-0.68923,-9.54133,3.08379,32.0822,-71.0062,-57.1718
60.31,-0.605951,-9.57749,3.32278,32.6434,-77.9115,-51.8074
60.315,-0.508533,-9.73314,3.57065,32.8453,-84.4858,-46.1919
60.32,-0.436939,-9.92199,3.81945,32.4417,-90.3899,-40.7385
60.325,-0.399372,-10.12,4.105,31.4147,-95.6321,-35.2991
60.33,-0.424703,-10.3481,4.30421,29.8695,-100.088,-29.7535
60.335,-0.453925,-10.5514,4.48852,27.8664,-103.583,-24.3357
60.339,-0.535612,-10.8122,4.67114,25.4115,-106.186,-19.225
60.344,-0.698731,-11.0494,4.81554,22.9314,-107.696,-14.5087
60.349,-0.837527,-11.2218,4.93495,19.6524,-107.905,-9.81735
60.354,-0.986771,-11.3309,5.04675,16.2433,-107.319,-4.59456
60.359,-1.03185,-11.5017,5.03169,13.0275,-106.286,1.20474
60.364,-1.03783,-11.5508,5.06571,9.71012,-105.625,6.92052
60.369,-1.11812,-11.4895,5.04353,6.50094,-105.52,12.2163
60.374,-1.14638,-11.4139,5.05814,3.96259,-105.568,16.8061
60.378,-1.30185,-11.3294,5.034,1.6118,-105.557,21.1707
60.383,-1.41219,-11.2557,5.01079,-0.108784,-105.453,25.2907
60.388,-1.47823,-11.1182,4.99463,-1.55799,-105.161,28.8256
60.393,-1.54731,-10.9822,4.9366,-2.71838,-104.659,31.8293
60.398,-1.63634,-10.8765,4.89807,-3.55649,-104.094,34.4238
60.403,-1.64725,-10.7464,4.78561,-4.17229,-103.423,36.9002
60.408,-1.76164,-10.5824,4.69205,-4.51346,-102.798,39.0303
60.412,-1.90576,-10.3956,4.53296,-4.64438,-102.148,41.0117
60.417,-2.05794,-10.2182,4.42956,-4.47663,-101.385,42.7091
60.422,-2.23084,-10.0634,4.32632,-3.79966,-100.485,43.9736
60.427,-2.35629,-9.84549,4.2403,-2.80442,-99.2703,44.7914
60.432,-2.44976,-9.66345,4.08319,-1.5679,-97.958,45.1418
60.437,-2.56553,-9.5186,3.95481,-0.0258797,-96.3966,45.2163
60.442,-2.67252,-9.40192,3.85751,1.52584,-94.5368,44.8813
60.447,-2.80105,-9.23296,3.76641,3.08281,-92.1147,44.3021
60.451,-2.86877,-9.09514,3.71257,4.44524,-89.2684,43.6722
60.456,-2.87799,-8.89938,3.64741,5.86366,-85.9828,42.9733
60.461,-2.8977,-8.67519,3.51351,7.21389,-82.5974,42.0454
60.466,-2.93338,-8.44237,3.39193,8.64649,-79.2769,40.7719
60.471,-2.96262,-8.2446,3.31064,10.495,-75.8626,38.9762
60.476,-3.00842,-8.09629,3.27781,12.3972,-72.4087,36.9379
60.481,-3.03261,-8.00142,3.22294,14.2047,-68.5727,34.5574
60.486,-2.98945,-7.92651,3.19294,16.0499,-64.5277,31.8664
60.491,-2.95495,-7.88805,3.20325,17.6423,-60.0573,29.1431
60.495,-2.96639,-7.86095,3.26059,18.7588,-55.4746,26.3177
60.5,-2.93124,-7.81414,3.23988,19.5311,-50.9376,23.6236
60.506,-2.82807,-7.72663,3.30474,20.0847,-46.1362,20.8171
60.51,-2.7652,-7.7002,3.27837,20.5383,-41.5155,17.9128
60.516,-2.69755,-7.67368,3.31575,20.6726,-36.796,15.0001
60.52,-2.67979,-7.66746,3.33997,20.4785,-32.5138,11.8972
60.526,-2.62442,-7.70589,3.36037,20.4009,-28.2352,8.75801
60.53,-2.54526,-7.78735,3.39706,20.0714,-24.1651,5.65182
60.536,-2.49857,-7.87966,3.42719,19.7289,-20.3819,2.32683
60.541,-2.45214,-8.01963,3.42899,19.2736,-16.8442,-0.92504
60.546,-2.45227,-8.16678,3.41089,18.5431,-13.4667,-4.01842
60.551,-2.44543,-8.27229,3.44331,17.6166,-10.4772,-6.88084
60.555,-2.43683,-8.41528,3.42058,16.5232,-7.75777,-9.2257
60.561,-2.34748,-8.47942,3.34306,15.1326,-5.57707,-11.0336
60.565,-2.31981,-8.51607,3.32269,14.2566,-4.33024,-12.3279
60.571,-2.23722,-8.5207,3.33056,13.5548,-3.91515,-13.5973
60.575,-2.20807,-8.55786,3.28271,13.3742,-3.90117,-15.0014
60.581,-2.28822,-8.69817,3.18417,13.5779,-3.85154,-16.4067
60.586,-2.2898,-8.8983,3.08598,13.9111,-3.74083,-18.0192
60.59,-2.29667,-9.11798,3.13402,13.9423,-3.50825,-19.5863
60.596,-2.19788,-9.31161,3.19642,13.3275,-2.97727,-20.5871
60.6,-2.04962,-9.46797,3.17225,12.4862,-2.46264,-20.2589
60.606,-1.96449,-9.51777,3.14436,11.6475,-2.78608,-19.2229
60.61,-1.85189,-9.48496,3.14811,11.1856,-4.03637,-18.1173
60.616,-1.7573,-9.43999,3.10891,11.0577,-6.14383,-16.2647
60.62,-1.69835,-9.43622,3.10449,11.2424,-9.10494,-14.1449
60.625,-1.63224,-9.42545,3.1546,11.6466,-12.7421,-11.4579
60.631,-1.5292,-9.37048,3.19,12.0056,-16.9317,-8.65646
60.635,-1.47361,-9.31267,3.21778,12.7626,-21.4326,-5.57238
60.641,-1.46624,-9.24431,3.21856,13.7496,-26.3256,-2.53242
60.645,-1.4568,-9.19811,3.22821,14.9863,-31.4099,0.301036
60.651,-1.50832,-9.23185,3.25948,16.5928,-36.3191,2.66152
60.655,-1.58433,-9.38039,3.2557,18.3263,-40.7259,4.76397
60.661,-1.76473,-9.55083,3.27346,19.7775,-44.191,6.48227
60.666,-1.97179,-9.61351,3.30779,21.0993,-46.876,8.5301
60.671,-2.21379,-9.71397,3.21736,22.3676,-48.7595,10.9431
60.676,-2.32165,-9.88248,3.14543,23.8561,-50.715,13.4543
60.68,-2.36586,-9.98368,3.04558,25.8455,-53.2573,16.1951
60.686,-2.34375,-10.171,3.10293,28.3428,-57.0919,19.0513
60.69,-2.34699,-10.3796,3.17767,30.8938,-61.5057,21.9321
60.695,-2.43448,-10.531,3.2986,33.3516,-65.9641,24.7235
60.7,-2.4617,-10.7105,3.37401,35.7997,-70.1021,27.6574
60.705,-2.53944,-10.8838,3.52848,37.9124,-73.5756,29.8583
60.71,-2.6285,-11.0324,3.70858,39.976,-75.7328,30.7441
60.715,-2.77976,-11.2351,3.80703,41.6747,-76.4868,30.9346
60.72,-2.92234,-11.4636,3.96819,42.8724,-76.035,30.6285
60.725,-3.042,-11.694,4.10643,43.4617,-74.4566,30.3111
60.729,-3.1731,-11.9147,4.27146,43.3942,-72.0702,29.858
60.734,-3.20136,-12.0458,4.46785,42.663,-69.0118,29.2609
60.739,-3.24402,-12.1662,4.74593,41.3453,-65.29,28.1515
60.744,-3.35081,-12.3832,5.00487,40.1272,-60.9907,26.4832
60.749,-3.54454,-12.6001,5.194,38.3475,-55.8836,24.1628
60.754,-3.79655,-12.8448,5.39222,35.9152,-49.6134,21.2747
60.759,-4.03818,-13.1205,5.56235,32.5638,-41.7894,18.3612
60.764,-4.2382,-13.367,5.78261,28.4316,-33.0527,15.9312
60.769,-4.34633,-13.3927,5.93766,23.5598,-23.8251,14.5697
60.773,-4.39438,-13.3993,5.9452,18.3485,-15.0814,14.2208
60.778,-4.42715,-13.3246,5.94539,13.3114,-7.16941,13.8969
60.783,-4.51243,-13.1442,5.91152,8.18129,0.079041,13.7508
60.788,-4.54813,-12.9288,5.75937,3.56604,6.61589,14.5078
60.793,-4.46981,-12.7149,5.53822,-0.0750572,11.6718,16.2815
60.798,-4.41825,-12.4929,5.27872,-2.51207,15.4735,18.7607
60.803,-4.49495,-12.3856,4.89256,-3.93828,18.1927,21.1018
60.808,-4.66044,-12.353,4.5348,-4.82019,20.0808,24.0412
60.812,-4.76298,-12.3137,4.0884,-5.43518,21.2444,28.7325
60.817,-4.71194,-12.151,3.84921,-5.88465,21.9295,34.8253
60.822,-4.54425,-11.8654,3.68246,-6.25646,21.1937,42.1304
60.827,-4.38181,-11.4859,3.63472,-5.79272,18.9989,50.21
60.832,-4.15723,-11.02,3.63299,-4.60299,15.4848,59.1093
60.837,-4.04168,-10.5921,3.63946,-2.6559,11.3283,68.04
60.842,-4.08924,-10.3626,3.5123,-0.637049,6.37863,76.4574
60.846,-4.06042,-10.0751,3.70553,1.26708,1.78457,83.6488
60.851,-4.19238,-9.83241,4.16072,3.44945,-0.247617,88.6038
60.856,-4.30018,-9.80791,4.44096,4.54653,1.44978,92.5789
60.861,-4.29463,-9.81054,4.6526,3.71144,6.38425,95.3675
60.866,-4.35591,-9.89718,4.85139,0.73546,14.4374,95.0771
60.871,-4.51865,-9.94448,4.9137,-4.8983,25.7465,91.6773
60.876,-4.45164,-9.78931,5.12984,-11.4135,39.5967,86.4262
60.881,-4.54111,-10.053,5.191,-16.8079,54.6858,79.7221
60.885,-3.93739,-10.9581,4.63999,-20.4462,68.5404,76.9347
60.891,-2.7943,-10.5187,5.1574,-27.3417,77.3915,74.4501
60.895,-4.02726,-10.5723,5.70025,-30.4517,87.2056,65.744
60.901,-3.81069,-12.2059,5.21905,-27.5475,96.8974,66.5151
60.905,-2.53182,-12.2135,5.31373,-31.9437,101.598,70.2131
60.911,-2.67533,-11.9647,5.23116,-36.9685,102.622,68.349
60.916,-3.15326,-12.0917,5.27224,-39.0949,102.459,65.6413
60.921,-3.25869,-12.3069,5.5354,-40.5228,104.812,63.2854
60.926,-3.00892,-12.6706,5.55148,-43.2468,109.027,61.1015
60.93,-2.18789,-13.0173,4.93395,-45.7587,111.047,61.4607
60.936,-1.05796,-12.6449,4.25426,-47.2556,107.244,64.8363
60.94,-1.34975,-11.8425,4.2694,-45.8249,97.9261,66.4512
60.946,-2.56266,-11.8245,4.61153,-38.8838,84.6278,69.5223
60.95,-3.20072,-12.4636,4.89835,-33.224,72.0985,75.7986
60.956,-3.17601,-13.0586,4.90758,-33.6884,63.9543,82.0999
60.961,-2.71878,-13.2059,4.73028,-36.1928,57.9668,88.8255
60.965,-2.16198,-12.934,4.54121,-35.9232,50.3547,97.4334
60.971,-1.96238,-12.383,4.43462,-31.6692,39.5552,107.858
60.975,-2.06616,-11.8623,4.6464,-23.7139,24.7795,118.035
60.981,-2.19281,-11.6972,4.99731,-12.6012,7.63731,125.851
60.985,-2.65361,-12.038,5.14687,-1.89786,-8.79449,129.609
60.991,-3.05901,-12.3785,5.49065,3.80559,-19.3287,134.595
60.995,-3.36717,-12.2235,5.87209,2.47677,-22.4817,142.352
61,-3.5721,-11.5859,6.3602,-2.99828,-18.1219,144.466
61.006,-3.58948,-11.0001,6.90778,-7.71965,-6.20102,141.061
61.01,-3.55048,-10.8138,7.33731,-11.238,11.2743,135.423
61.016,-3.27685,-10.8158,7.66857,-14.7179,31.0235,128.862
61.02,-2.50249,-10.8798,7.72805,-17.8553,49.2281,123.966
61.026,-1.16367,-10.9232,7.48667,-19.5426,63.823,122.237
61.03,0.257493,-10.8508,7.32104,-20.529,73.1921,121.635
61.036,1.82475,-10.5055,7.00111,-21.051,77.592,122.194
61.041,3.47633,-9.91569,6.37957,-21.6374,80.8423,123.687
61.046,5.00538,-9.17005,5.73597,-22.8453,83.4715,125.094
61.051,6.65435,-8.16775,5.29108,-23.8126,82.675,126.792
61.055,8.23231,-7.23124,4.54379,-23.0871,77.609,127.98
61.061,9.19228,-6.58068,3.95163,-20.3434,67.1838,126.525
61.065,9.618,-6.11708,3.54813,-16.195,52.201,123.253
61.071,9.75876,-5.87228,3.29884,-10.7409,34.8142,119.277
61.075,9.50653,-5.80829,3.33672,-4.23828,16.269,112.824
61.081,9.12862,-5.98769,3.62383,2.29202,-0.794065,103.642
61.086,8.48453,-6.38829,4.15806,8.51444,-15.3134,90.3413
61.09,7.81098,-6.92532,4.83695,14.1506,-26.1518,73.3529
61.095,7.56732,-7.62365,5.41334,18.0053,-32.6318,55.9631
61.1,7.85711,-8.30307,5.91194,18.6177,-36.0647,40.1828
61.105,8.54083,-8.60985,6.25257,16.1743,-38.2183,26.992
61.11,9.30614,-8.53884,6.43092,11.4965,-40.6492,16.1022
61.115,9.89934,-8.17135,6.57526,6.03471,-44.3944,6.7276
61.12,10.2955,-7.70114,6.60852,0.343899,-48.778,-1.88105
61.124,10.5366,-7.33035,6.63704,-5.1498,-52.7409,-9.48666
61.129,10.5296,-7.00348,6.74323,-10.0427,-55.6499,-16.9097
61.134,10.4182,-6.81546,6.85064,-14.7569,-57.1306,-24.1052
61.139,10.2889,-6.73104,6.91058,-18.3705,-57.8925,-30.0953
61.144,10.1176,-6.72114,6.92376,-20.0663,-58.1647,-34.4913
61.149,9.75319,-6.74671,6.86793,-20.8983,-59.1443,-37.891
61.154,9.13554,-6.68337,6.796,-21.7833,-61.0199,-41.3724
61.159,8.46117,-6.58345,6.69946,-21.9361,-63.2852,-45.3392
61.164,7.90705,-6.58253,6.61207,-20.8383,-65.8854,-49.7754
61.168,7.36924,-6.68946,6.58774,-18.5632,-69.0609,-54.2758
61.173,6.74722,-6.87731,6.44598,-15.682,-72.9212,-58.8159
61.178,6.1383,-7.10507,6.38253,-12.4028,-77.093,-63.0735
61.183,5.57343,-7.33395,6.26717,-9.07414,-81.3578,-66.7518
61.188,5.09983,-7.51356,6.14993,-5.6121,-85.366,-69.8213
61.193,4.63793,-7.68631,6.0858,-2.25512,-89.276,-72.6216
61.198,4.27162,-7.85266,6.11855,1.16401,-93.4366,-75.4028
61.203,3.8874,-8.07029,6.19558,4.93718,-98.4909,-78.1912
61.207,3.47798,-8.47094,6.40331,8.7194,-103.628,-80.5307
61.212,3.08555,-8.92381,6.6063,12.2215,-108.425,-81.9548
61.217,2.67399,-9.33611,6.75988,14.8069,-112.681,-81.6511
61.222,2.32391,-9.58675,7.03058,16.0732,-116.884,-80.2481
61.227,1.91637,-9.70975,7.29753,17.0185,-120.943,-78.2471
61.232,1.50815,-9.79245,7.5745,17.9553,-125.11,-75.8519
61.237,0.948313,-9.97742,7.89038,19.1365,-128.791,-73.9518
61.242,0.247675,-10.1867,8.19164,19.6387,-131.647,-72.4664
61.246,-0.554919,-10.3995,8.39141,19.9189,-132.766,-71.8663
61.251,-1.51864,-10.6937,8.64591,19.4072,-131.225,-72.0188
61.256,-2.47468,-10.9925,8.79651,17.3618,-127.155,-72.4185
61.261,-3.26608,-11.2491,8.8591,14.9753,-121.904,-72.5922
61.266,-3.99705,-11.5024,8.88982,12.5424,-116.794,-73.107
61.271,-4.77568,-11.7044,8.82676,10.3875,-112.584,-73.4612
61.276,-5.6088,-11.8421,8.80806,8.67796,-108.797,-73.9865
61.28,-6.5413,-12.0597,8.70365,7.6008,-104.739,-74.9725
61.286,-7.24473,-12.2064,8.55421,7.00681,-100.212,-75.0683
61.291,-7.76255,-12.1871,8.4526,6.89286,-95.6026,-74.2461
61.296,-8.24535,-12.0401,8.27358,7.00778,-91.752,-72.4077
61.301,-8.59912,-11.8259,8.05092,7.45317,-89.5253,-68.9352
61.305,-8.83938,-11.4705,7.92107,8.09963,-89.2059,-64.0112
61.311,-8.97482,-11.1464,7.79246,9.07428,-90.0691,-57.5041
61.315,-9.23256,-10.635,7.65536,10.2701,-92.2571,-50.5665
61.321,-9.69908,-10.1849,7.53079,11.9584,-94.7416,-43.6607
61.325,-10.263,-9.96765,7.32603,14.2483,-97.0284,-36.8965
61.331,-10.9298,-9.86137,6.94667,16.7165,-98.1092,-30.2946
61.336,-11.6863,-9.9217,6.52135,18.7825,-97.5513,-23.2982
61.34,-12.3989,-9.95738,6.25074,20.0283,-96.0856,-16.1501
61.346,-12.9388,-9.91506,6.10826,20.5226,-94.0489,-9.2128
61.35,-13.519,-9.76942,5.85799,20.9009,-90.7856,-2.9752
61.356,-14.1863,-9.63631,5.63597,20.94,-85.7674,2.61498
61.36,-14.7746,-9.3545,5.37857,19.9818,-78.7756,8.0932
61.366,-15.1971,-9.02385,5.10076,18.2144,-69.9879,12.6426
61.37,-15.3759,-8.69133,4.97715,16.3217,-60.7318,15.9208
61.375,-15.3251,-8.4056,4.90268,14.8146,-52.311,18.6714
61.381,-15.2645,-8.27755,4.72978,14.0689,-45.4004,21.7574
61.385,-15.1551,-8.16542,4.635,13.6004,-39.994,25.472
61.391,-15.2222,-8.01692,4.58179,12.7157,-34.9036,29.3192
61.395,-15.4133,-7.90761,4.60205,11.2203,-29.3088,32.592
61.401,-15.5076,-7.87496,4.60225,9.9546,-22.8683,35.2864
61.405,-15.5174,-7.93535,4.54439,8.62443,-15.9578,37.5216
61.411,-15.4565,-8.10088,4.53073,6.82501,-9.02123,39.2736
61.416,-15.3412,-8.31223,4.51921,4.96646,-2.29034,40.8559
61.421,-15.1347,-8.55428,4.51313,3.24811,3.99219,42.9332
61.426,-14.8486,-8.76762,4.53419,1.68483,10.0685,45.1184
61.43,-14.4923,-8.931,4.66329,-0.0667042,15.8782,47.3412
61.436,-14.1061,-9.03717,4.85058,-1.80612,21.1484,49.862
61.44,-13.7007,-9.18882,4.9587,-2.9772,26.1436,52.3867
61.446,-13.2441,-9.38201,5.10627,-3.76023,30.9254,54.9468
61.45,-12.807,-9.52879,5.28368,-4.72318,35.15,57.8058
61.456,-12.3527,-9.69749,5.45406,-5.89474,38.9221,61.0665
61.461,-12.0271,-9.84062,5.62793,-7.12372,42.2843,64.8002
61.465,-11.5007,-10.0306,5.80591,-7.79344,45.0578,68.7452
61.471,-10.8846,-10.1271,5.86002,-8.33727,47.1256,73.3702
61.475,-10.3896,-10.2964,5.90313,-8.40957,47.8847,78.4069
61.481,-9.99086,-10.4432,5.97322,-8.07255,47.3635,83.4472
61.485,-9.68248,-10.5185,6.03632,-7.60169,46.6396,88.1155
61.49,-9.47257,-10.6139,6.12373,-6.96007,45.9369,92.3029
61.495,-9.23914,-10.7354,6.12766,-6.01285,46.1016,95.9479
61.5,-8.79001,-10.8212,6.1442,-5.40018,46.5193,99.3146
61.505,-8.30902,-10.8423,6.09527,-4.86502,46.7228,102.659
61.51,-7.73866,-10.8452,5.99312,-4.10312,45.5455,106.458
61.515,-7.21645,-10.8164,6.00726,-2.82743,43.0047,110.193
61.52,-6.83978,-10.6761,6.07492,-1.29188,39.9372,113.377
61.524,-6.63667,-10.5514,6.11856,0.338909,37.4887,115.777
61.529,-6.42422,-10.4803,6.11693,1.91029,36.0726,117.474
61.534,-6.08994,-10.4575,6.17284,3.03347,35.2979,118.9
61.539,-5.6596,-10.434,6.3116,3.70282,35.0142,119.846
61.544,-5.22327,-10.3488,6.31838,4.28414,34.6291,120.725
61.549,-4.8463,-10.2455,6.35838,4.97167,34.3538,121.523
61.554,-4.54099,-10.1542,6.47576,5.29021,34.2699,121.733
61.558,-4.13756,-10.0929,6.44365,5.24477,34.3365,121.581
61.563,-3.73034,-10.024,6.39071,5.30227,34.1274,121.375
61.568,-3.38061,-10.008,6.33568,5.31024,33.3921,120.857
61.573,-3.13101,-9.96341,6.24634,5.30176,32.6193,120.084
61.578,-2.95086,-9.88918,6.22118,5.08501,31.9976,119.243
61.583,-2.77575,-9.77817,6.16003,4.77376,31.7583,118.06
61.588,-2.59955,-9.71288,6.07469,4.57478,32.1606,116.148
61.593,-2.25268,-9.66707,5.99139,4.75711,32.8327,113.995
61.597,-1.86971,-9.58565,5.85924,4.68069,33.3824,112.256
61.602,-1.56812,-9.46431,5.70359,4.29948,33.669,110.592
61.607,-1.22086,-9.29462,5.52861,4.27226,33.681,108.653
61.612,-0.95563,-9.06226,5.30962,4.62187,33.3853,106.517
61.617,-0.678446,-8.85874,5.13188,5.29818,33.1122,104.196
61.622,-0.478747,-8.68874,4.96652,6.07221,32.6198,101.8
61.627,-0.278275,-8.5264,4.82053,6.73006,31.8935,98.8471
61.632,-0.0629435,-8.37544,4.70731,7.46504,31.1592,95.5271
61.637,0.0604176,-8.23233,4.62186,8.09256,30.7419,92.0354
61.641,0.232762,-8.09376,4.50072,8.80018,30.0823,88.4143
61.646,0.321515,-8.03535,4.45761,9.38357,29.7018,84.3663
61.651,0.316299,-7.99498,4.46909,9.84496,29.778,79.6752
61.656,0.410421,-8.04156,4.48587,10.0034,30.3877,74.5747
61.661,0.560847,-8.18635,4.5159,9.97732,31.1008,69.2814
61.666,0.649904,-8.30574,4.63652,9.40631,32.0408,63.8587
61.671,0.796872,-8.31559,4.64208,8.63968,33.6564,59.1791
61.675,0.879536,-8.25536,4.64371,7.72173,35.4516,54.8178
61.68,0.959563,-8.13509,4.61484,6.89013,37.1552,50.5375
61.686,1.06281,-8.03621,4.56589,6.18261,38.3575,46.2945
61.691,1.13805,-7.97715,4.5922,5.32072,39.1321,42.0087
61.695,1.21086,-7.89267,4.59202,4.52172,39.8633,37.9293
61.7,1.18866,-7.80016,4.60828,3.48139,40.2731,33.9282
61.706,1.27862,-7.73643,4.61691,2.28682,40.4775,30.2739
61.71,1.41737,-7.66005,4.55527,1.48505,40.427,26.8795
61.715,1.5044,-7.6002,4.49033,0.69088,39.8787,23.5589
61.721,1.59611,-7.47682,4.40188,0.165344,38.7356,20.3383
61.726,1.67163,-7.40615,4.37955,-0.0719089,37.1987,17.0556
61.73,1.73896,-7.461,4.34327,-0.445452,35.2423,13.5819
61.735,1.77034,-7.50145,4.41588,-0.602448,32.844,10.4368
61.741,1.79206,-7.53979,4.39271,-0.509597,29.8575,7.74183
61.746,1.82077,-7.58997,4.31251,0.0101574,25.8362,5.49369
61.75,1.93621,-7.60445,4.31398,0.621724,20.429,3.88329
61.756,1.94069,-7.65082,4.3652,1.41416,14.3262,2.30637
61.761,1.83817,-7.69018,4.459,1.92646,7.8822,0.273883
61.765,1.70335,-7.77505,4.55024,2.37739,1.67406,-1.9792
61.77,1.59817,-7.91638,4.66168,2.47488,-3.6554,-4.42747
61.776,1.51028,-8.04591,4.81142,1.96618,-8.52208,-7.22562
61.781,1.42332,-8.13806,4.91205,0.967125,-12.9146,-10.208
61.785,1.32014,-8.22065,4.97572,-0.0296324,-16.9074,-13.017
61.791,1.16536,-8.23867,5.04459,-1.35711,-20.8959,-16.0672
61.796,1.06894,-8.23129,5.07268,-2.85254,-24.7431,-19.0545
61.8,0.921922,-8.26884,5.10393,-3.95611,-28.4335,-22.2367
61.805,0.779823,-8.39326,5.11117,-5.03029,-32.2433,-25.7237
61.811,0.739845,-8.54867,5.22388,-6.65095,-36.241,-29.7154
61.816,0.690267,-8.79537,5.39541,-8.2384,-40.6071,-33.975
61.82,0.724229,-9.05791,5.5467,-9.52994,-45.0236,-38.1007
61.825,0.753882,-9.25513,5.75828,-10.8758,-49.465,-41.7819
61.831,0.719618,-9.47026,5.92754,-12.5688,-54.1147,-44.9138
61.835,0.63434,-9.56264,6.06585,-15.0289,-58.421,-47.6676
61.84,0.459054,-9.51957,6.24022,-18.3966,-62.317,-49.6797
61.846,0.280512,-9.42973,6.28657,-22.2683,-65.7888,-51.5035
61.851,0.0677516,-9.23467,6.29318,-26.1649,-68.7859,-53.4545
61.855,-0.134339,-9.02409,6.28419,-29.5471,-71.7012,-55.8158
61.86,-0.302029,-8.9223,6.26745,-32.3394,-74.5133,-58.5519
61.866,-0.45434,-8.93569,6.29541,-34.8465,-77.4852,-61.5888
61.871,-0.52797,-9.01133,6.29206,-37.2119,-80.7131,-64.1451
61.875,-0.576713,-9.06002,6.28535,-39.4611,-84.3263,-65.8787
61.88,-0.689789,-9.10473,6.2651,-41.3692,-88.0567,-67.3263
61.885,-0.948699,-9.16789,6.2457,-43.1093,-91.9285,-68.8365
61.89,-1.23141,-9.17066,6.24062,-45.0952,-95.2389,-70.3707
61.895,-1.52025,-9.15784,6.19816,-47.0557,-97.5787,-72.1241
61.9,-1.79585,-9.13986,6.16548,-48.5611,-98.9635,-73.7428
61.905,-1.99836,-9.18901,6.11629,-49.6997,-99.4948,-75.2943
61.91,-2.10017,-9.22612,6.03469,-50.8116,-99.4671,-76.6104
61.915,-2.26068,-9.2505,6.0374,-51.9363,-98.6626,-77.6326
61.919,-2.34578,-9.26781,6.03981,-52.7812,-97.7396,-78.5899
61.924,-2.32308,-9.28249,6.04967,-53.2929,-96.4208,-79.1317
61.929,-2.2785,-9.32158,6.01941,-53.4288,-94.9353,-78.6877
61.934,-2.20249,-9.35364,6.02493,-53.3303,-93.6616,-77.6749
61.939,-2.04674,-9.31196,5.98908,-53.1716,-92.5938,-76.0371
61.944,-1.85517,-9.19387,6.04472,-53.0442,-92.2028,-73.6107
61.949,-1.61844,-9.08672,6.10133,-52.3706,-92.4657,-70.803
61.954,-1.38217,-8.9926,6.12559,-51.2744,-93.4992,-67.3828
61.958,-1.11226,-8.91605,6.16286,-49.8543,-95.5143,-63.8521
61.963,-0.885302,-8.9191,6.16677,-48.2838,-98.3133,-60.1716
61.968,-0.700892,-8.93514,6.27717,-46.6614,-101.869,-56.2497
61.973,-0.51457,-8.95621,6.3619,-44.7502,-106.23,-51.9361
61.978,-0.370903,-8.99287,6.45633,-42.664,-111.216,-47.4094
61.983,-0.244734,-9.03668,6.57584,-40.4438,-117.023,-42.9876
61.988,-0.216556,-9.14117,6.64446,-38.4711,-123.302,-38.698
61.992,-0.248824,-9.24901,6.74501,-36.96,-129.831,-34.4284
61.997,-0.332019,-9.315,6.87125,-35.1328,-136.224,-30.3893
62.002,-0.411711,-9.38991,6.89677,-33.2571,-142.523,-26.615
62.007,-0.555047,-9.54963,6.91965,-31.5945,-148.229,-23.7898
62.012,-0.773857,-9.66658,6.93767,-30.1789,-153.186,-21.8324
62.017,-1.02569,-9.7565,6.92753,-28.9752,-157.346,-20.6355
62.022,-1.37028,-9.91264,6.91616,-27.8546,-160.648,-20.4067
62.027,-1.68023,-10.0463,6.96551,-27.0314,-162.853,-20.8317
62.032,-1.93594,-10.16,6.96144,-26.3228,-164.259,-21.7034
62.036,-2.19484,-10.2893,6.93247,-25.8528,-165.204,-23.1823
62.041,-2.46209,-10.3959,6.85834,-25.5689,-165.619,-25.1066
62.046,-2.73252,-10.4657,6.85098,-25.1824,-165.69,-27.3515
62.051,-3.0629,-10.4783,6.87106,-24.9466,-165.2,-30.1364
62.056,-3.31065,-10.4482,6.8622,-24.8976,-163.944,-32.7754
62.061,-3.47867,-10.3792,6.75084,-24.8131,-161.815,-35.3865
62.066,-3.58688,-10.2628,6.73029,-24.9177,-159.318,-38.0251
62.07,-3.65851,-10.0817,6.708,-25.1246,-156.561,-40.8127
62.075,-3.70883,-9.88577,6.63978,-25.7173,-153.191,-43.4623
62.081,-3.69431,-9.69588,6.68378,-26.104,-149.308,-45.7059
62.085,-3.63426,-9.46018,6.61156,-26.6585,-145.062,-47.4969
62.09,-3.50166,-9.26614,6.59912,-27.253,-141.202,-48.762
62.096,-3.35472,-9.08169,6.52085,-27.6189,-137.705,-49.6673
62.101,-3.17298,-8.87829,6.45577,-27.4107,-134.936,-49.8887
62.105,-3.03396,-8.73685,6.45306,-26.9107,-132.588,-49.7471
62.11,-2.87003,-8.63567,6.42154,-26.094,-131.12,-48.9115
62.116,-2.71867,-8.56242,6.4007,-24.7943,-130.247,-47.698
62.121,-2.63245,-8.52488,6.38376,-23.5347,-129.761,-45.9582
62.125,-2.53354,-8.49277,6.37593,-22.1607,-129.455,-44.0386
62.131,-2.50047,-8.47241,6.36729,-20.7624,-128.992,-42.0565
62.136,-2.4899,-8.47204,6.35283,-19.439,-128.341,-39.9226
62.14,-2.54277,-8.54368,6.30291,-18.0733,-127.524,-37.8747
62.145,-2.60025,-8.61399,6.27023,-16.6077,-126.525,-35.729
62.151,-2.65264,-8.73979,6.2272,-14.8167,-125.697,-33.7543
62.156,-2.71881,-8.92995,6.19464,-12.8246,-125.156,-31.7209
62.16,-2.77327,-9.08223,6.16372,-11.0025,-124.874,-29.7977
62.166,-2.87256,-9.22559,6.16526,-9.28351,-124.316,-27.8218
62.171,-3.01399,-9.3243,6.17207,-7.98967,-123.768,-25.7726
62.175,-3.13199,-9.39662,6.18713,-6.7625,-122.929,-23.9667
62.18,-3.25311,-9.38475,6.23218,-5.65956,-121.81,-22.5876
62.186,-3.31686,-9.44978,6.29182,-4.76791,-120.305,-21.5148
62.191,-3.41956,-9.52051,6.37199,-3.79018,-118.495,-21.0177
62.195,-3.49454,-9.6291,6.41595,-2.75791,-116.439,-20.5752
62.2,-3.55586,-9.67092,6.48112,-2.11701,-113.935,-20.4072
62.206,-3.61262,-9.7477,6.48367,-1.60237,-111.107,-20.0605
62.21,-3.65299,-9.82019,6.50627,-1.0136,-108.45,-19.664
62.215,-3.68727,-9.8458,6.46313,-0.281082,-106.094,-19.3925
62.221,-3.83631,-9.98195,6.35248,0.534619,-103.596,-19.2787
62.226,-3.99322,-10.1136,6.28055,1.44409,-101.067,-19.2776
62.23,-4.0528,-10.2453,6.19886,2.26592,-98.4178,-18.9537
62.235,-4.06037,-10.3313,6.10235,3.11278,-95.4015,-18.3799
62.241,-4.07552,-10.4149,6.07804,3.86963,-92.6639,-17.6566
62.246,-3.97739,-10.4587,6.01066,4.55182,-90.3593,-16.5142
62.25,-3.93809,-10.4736,5.97713,5.15852,-88.4728,-14.7507
62.256,-3.83413,-10.5133,5.9442,6.15192,-87.6111,-12.6703
62.261,-3.64272,-10.5413,5.99761,7.43093,-87.925,-9.96717
62.265,-3.37393,-10.582,6.09131,8.72831,-89.2463,-6.48841
62.27,-3.01462,-10.5135,6.25544,10.0017,-91.9647,-2.53767
62.275,-2.71628,-10.4763,6.42026,11.7188,-95.68,2.11563
62.28,-2.45184,-10.5527,6.50353,13.5054,-100.144,6.86121
62.285,-2.27685,-10.549,6.61391,15.0931,-104.762,11.5989
62.29,-2.31939,-10.5621,6.72045,16.2653,-109.091,16.0003
62.295,-2.4268,-10.5506,6.76123,17.314,-112.934,20.1625
62.3,-2.66373,-10.5559,6.72608,18.1076,-115.291,23.9742
62.305,-2.91368,-10.5187,6.70945,18.6136,-116.651,27.3795
62.31,-3.13695,-10.4622,6.56695,19.0444,-116.809,30.013
62.314,-3.43201,-10.419,6.42084,20.0581,-115.76,31.7288
62.319,-3.68833,-10.3829,6.287,20.9816,-113.976,32.6707
62.324,-3.8866,-10.3815,6.18195,21.7543,-111.408,33.462
62.329,-4.03515,-10.3425,6.05548,22.3251,-108.537,34.3959
62.334,-4.14152,-10.2524,5.86598,23.0707,-105.671,35.2759
62.339,-4.22472,-10.165,5.70285,23.9122,-102.821,35.4377
62.344,-4.37603,-10.0937,5.64493,25.2058,-99.8605,34.7807
62.348,-4.63484,-10.0932,5.60348,26.8094,-96.2965,33.416
62.353,-4.88171,-10.174,5.51159,28.3849,-91.8013,32.0748
62.358,-5.02497,-10.3224,5.42068,29.722,-86.6236,30.5163
62.363,-5.24826,-10.3929,5.38747,30.369,-80.4919,28.7007
62.368,-5.4123,-10.3821,5.3108,30.3985,-73.7696,26.6918
62.373,-5.54248,-10.2926,5.25454,29.9982,-66.1752,24.6539
62.378,-5.53841,-10.0928,5.18332,29.3362,-58.2466,23.1811
62.383,-5.52937,-9.93249,5.05133,28.9462,-50.3057,22.1695
62.388,-5.50077,-9.73369,5.01069,28.6568,-42.8179,21.321
62.392,-5.44213,-9.63072,4.9309,28.456,-35.863,20.6042
62.397,-5.50022,-9.55228,4.75258,28.6615,-29.1132,19.7749
62.402,-5.52154,-9.62421,4.57824,29.1463,-22.8487,19.4804
62.407,-5.47952,-9.71891,4.51294,30.0611,-17.234,19.6045
62.412,-5.38197,-9.88674,4.47206,30.9231,-12.0707,20.4259
62.417,-5.28107,-10.0066,4.48561,31.4093,-7.23347,21.5101
62.422,-5.20941,-10.0917,4.45013,31.0944,-2.5107,23.3196
62.427,-5.16357,-10.1266,4.45574,30.3547,2.02706,26.2484
62.431,-5.04762,-10.0332,4.41594,29.7393,6.28562,29.6044
62.436,-4.87918,-9.96593,4.3377,29.363,10.0689,33.3652
62.441,-4.71809,-9.88343,4.29883,29.5346,13.169,37.1044
62.446,-4.62048,-9.85439,4.27096,29.6458,16.0933,41.0779
62.451,-4.53831,-9.80601,4.2561,29.6147,18.6695,45.0397
62.456,-4.46777,-9.79677,4.22378,29.5247,21.2623,49.2214
62.461,-4.40832,-9.78115,4.23586,29.4128,23.4768,53.7816
62.465,-4.3096,-9.79298,4.31237,29.1375,25.569,58.2396
62.471,-4.18862,-9.76648,4.376,28.5656,27.7265,62.7656
62.476,-4.03,-9.7197,4.42956,27.9847,29.5704,67.4992
62.48,-3.89601,-9.78423,4.4956,27.5823,30.9377,71.8256
62.485,-3.78419,-9.91949,4.61024,27.4248,32.1552,75.7211
62.491,-3.62792,-10.1225,4.77779,27.1546,33.1273,79.6896
62.496,-3.42779,-10.322,4.95684,26.6453,33.9557,83.5203
62.5,-3.22286,-10.606,5.14356,26.0315,34.8673,87.4184
62.506,-3.11768,-10.9133,5.33459,25.1914,35.6998,91.0078
62.511,-2.98792,-11.1254,5.49838,23.9396,37.1907,94.0309
62.515,-2.95396,-11.4366,5.67062,22.6246,39.3435,96.5797
62.52,-2.88224,-11.7472,5.77053,21.0728,42.1496,98.5086
62.526,-2.72242,-12.0738,5.84875,19.4943,45.2375,100.323
62.531,-2.55251,-12.4779,5.88635,17.8969,48.3319,102.488
62.535,-2.36343,-12.8265,5.91562,16.2462,50.5458,104.774
62.541,-2.19588,-13.1541,6.00263,14.2288,52.5098,106.523
62.546,-2.19609,-13.3786,6.0887,11.9504,54.3486,107.856
62.55,-2.19582,-13.5427,6.17032,9.54,56.345,108.955
62.555,-2.20778,-13.6894,6.25929,7.31218,58.6797,110.196
62.561,-2.17838,-13.8421,6.2721,5.40353,61.5349,111.179
62.566,-2.28219,-14.004,6.22868,3.71625,64.2879,111.855
62.57,-2.19904,-14.1437,6.30007,2.18144,66.4502,112.669
62.575,-2.05076,-14.2341,6.28555,0.560463,68.3073,114.058
62.581,-1.9137,-14.1699,6.28417,-1.34773,69.5276,116.231
62.585,-1.74009,-13.9437,6.23909,-3.32385,69.8319,119.099
62.59,-1.56197,-13.6018,6.19708,-5.00855,69.5083,122.143
62.596,-1.43837,-13.248,6.1077,-6.17313,68.8137,125.457
62.601,-1.27987,-12.8774,5.99977,-6.03581,67.0271,128.542
62.605,-1.08563,-12.5652,5.86735,-5.06331,64.7974,131.478
62.61,-0.939764,-12.3535,5.7668,-3.70936,62.2182,134.44
62.616,-0.800635,-12.0823,5.7516,-2.16841,59.0943,137.647
62.621,-0.715661,-11.8383,5.62961,-0.418364,56.0265,141.109
62.625,-0.700382,-11.5638,5.52252,1.25794,53.1147,144.318
62.631,-0.6821,-11.2866,5.47318,3.11045,50.1677,147.07
62.636,-0.670035,-10.9441,5.38133,5.00904,47.7584,149.505
62.64,-0.677786,-10.7003,5.26775,7.37505,46.1461,151.514
62.645,-0.695337,-10.5306,5.17841,9.70527,44.8992,152.961
62.651,-0.753395,-10.3998,5.09181,11.9756,43.8584,153.784
62.656,-0.802825,-10.2625,5.03227,14.1895,43.3935,153.752
62.66,-0.877591,-10.2126,4.98056,16.3191,43.8167,153.156
62.666,-0.993698,-10.1268,4.93763,18.2799,45.4119,151.901
62.67,-1.05454,-10.047,4.8794,19.5974,47.865,150.137
62.675,-1.15929,-9.95106,4.87196,20.497,51.0477,147.987
62.68,-1.23097,-9.85223,4.82535,20.8734,54.8355,145.328
62.685,-1.30194,-9.75986,4.81395,21.2497,59.02,142.012
62.69,-1.3889,-9.64517,4.73279,21.7975,63.211,138.014
62.695,-1.39414,-9.62218,4.71368,21.7937,67.4931,133.879
62.7,-1.40221,-9.6006,4.71787,21.5773,71.9681,129.452
62.705,-1.43261,-9.56753,4.72979,20.8604,76.3961,124.86
62.709,-1.4148,-9.51391,4.7172,20.0303,80.3716,120.154
62.714,-1.39594,-9.47389,4.64482,19.2257,84.0796,115.762
62.719,-1.34246,-9.36277,4.61218,18.3428,87.3816,111.364
62.724,-1.29847,-9.24809,4.56475,17.3453,90.0233,106.663
62.729,-1.27372,-9.1392,4.52061,16.186,92.116,102.113
62.734,-1.29138,-9.03312,4.45334,14.9969,94.1057,97.4778
62.739,-1.26374,-8.90659,4.40067,13.7135,95.8587,92.768
62.743,-1.23757,-8.79699,4.34488,12.5881,97.5684,87.7484
62.748,-1.23742,-8.75192,4.27638,11.4589,98.908,82.959
62.753,-1.19118,-8.69407,4.24185,10.279,99.7511,78.2606
62.758,-1.11674,-8.67965,4.15706,9.054,100.264,74.0669
62.763,-1.03128,-8.60443,4.05332,7.89728,100.059,70.3692
62.768,-0.930956,-8.492,3.96137,6.56082,98.8994,67.6268
62.773,-0.820254,-8.34457,3.85094,5.48924,96.7751,65.2149
62.778,-0.775222,-8.19488,3.72275,4.79695,94.1239,63.0461
62.783,-0.701261,-7.99423,3.65027,4.1772,91.1092,60.9414
62.787,-0.699396,-7.85345,3.56168,3.72018,88.0094,58.7512
62.792,-0.691077,-7.71775,3.44599,3.28059,84.9329,56.6147
62.797,-0.656899,-7.59748,3.35034,2.77208,81.971,54.451
62.802,-0.625609,-7.50848,3.34533,2.15924,79.0923,52.3547
62.807,-0.627399,-7.4573,3.31838,1.50623,76.2236,50.1283
62.812,-0.596078,-7.40434,3.23637,0.911475,73.3532,47.8839
62.817,-0.555764,-7.39676,3.22002,0.194006,70.3354,45.4653
62.821,-0.495678,-7.3728,3.20108,-0.682219,67.1538,43.169
62.826,-0.464991,-7.4428,3.16146,-1.66882,64.1265,41.1193
62.831,-0.424915,-7.46542,3.14733,-3.10111,60.6806,39.1174
62.836,-0.359763,-7.36374,3.15308,-4.64541,56.9745,36.9866
62.841,-0.316671,-7.3051,3.10834,-6.12466,53.4025,34.8462
62.846,-0.250941,-7.24249,3.11988,-7.33835,49.47,32.5673
62.851,-0.188413,-7.19536,3.10648,-8.50605,45.2336,29.8496
62.856,-0.153438,-7.21108,3.12369,-9.75717,40.6326,26.9002
62.86,-0.144595,-7.25784,3.10834,-11.096,35.9306,23.884
62.866,-0.130988,-7.25593,3.13576,-12.9047,31.2695,20.5865
62.871,-0.125638,-7.26375,3.15374,-14.8407,26.7249,17.2801
62.875,-0.122962,-7.27639,3.14743,-16.9219,22.0662,13.7231
62.881,-0.178185,-7.32002,3.16784,-18.8913,17.4454,9.90547
62.886,-0.20469,-7.34289,3.2462,-21.0508,12.7622,5.48277
62.89,-0.206507,-7.41882,3.32854,-22.9782,7.86435,0.799931
62.895,-0.230805,-7.5459,3.45659,-24.7777,2.83522,-4.07577
62.901,-0.233025,-7.732,3.54851,-26.8071,-2.42076,-8.64028
62.906,-0.148914,-7.86544,3.62236,-29.1392,-7.54003,-12.9576
62.91,-0.133293,-7.96305,3.76285,-31.7776,-13.1149,-17.1869
62.916,-0.103229,-8.05506,3.83635,-34.1262,-18.8912,-21.4926
62.921,-0.112935,-8.144,3.92687,-36.1222,-24.9123,-25.6685
62.925,-0.162289,-8.19731,4.06387,-38.2091,-30.8004,-30.1496
62.93,-0.131092,-8.26914,4.12286,-40.3799,-36.8162,-34.2711
62.936,-0.046173,-8.33173,4.12777,-42.2606,-43.43,-37.8123
62.941,-0.00186084,-8.36492,4.17671,-43.9777,-50.3182,-40.5945
62.945,0.12958,-8.33569,4.25754,-45.3157,-57.9557,-43.5233
62.95,0.273365,-8.37471,4.32028,-45.975,-66.6418,-46.4277
62.956,0.405213,-8.54796,4.37405,-45.9706,-75.9998,-49.188
62.96,0.488873,-8.77296,4.50389,-45.5947,-86.2282,-51.9014
62.965,0.518766,-9.00608,4.70368,-45.5586,-96.7661,-54.6483
62.971,0.469442,-9.30223,4.94546,-45.8288,-106.918,-57.1851
62.976,0.383655,-9.61711,5.1364,-46.0066,-116.392,-59.6973
62.98,0.201239,-9.84131,5.33043,-46.7595,-124.885,-62.0993
62.985,0.0134872,-9.99171,5.51612,-47.9785,-131.904,-64.5013
62.991,-0.189355,-10.161,5.6713,-49.3634,-137.763,-66.9342
62.996,-0.333442,-10.2607,5.76652,-51.0948,-142.608,-69.5537
63,-0.445016,-10.266,5.90846,-52.6294,-146.855,-72.2162
63.006,-0.579643,-10.3244,5.88478,-53.6044,-150.248,-75.0146
63.011,-0.736241,-10.3921,5.85594,-53.9331,-153.097,-78.2559
63.015,-0.962378,-10.53,5.83639,-54.14,-155.388,-81.7778
63.02,-1.12464,-10.6976,5.89599,-54.3867,-156.842,-85.5102
63.026,-1.31761,-10.8125,5.96462,-54.5894,-157.094,-89.2199
63.031,-1.46828,-10.9571,6.02695,-55.1389,-156.714,-92.2572
63.035,-1.58535,-11.0357,6.1424,-55.7112,-155.459,-95.2484
63.041,-1.72791,-11.0711,6.20389,-56.1884,-153.76,-97.9782
63.046,-1.8081,-11.0733,6.26897,-56.7286,-151.78,-100.321
63.05,-1.87214,-11.0527,6.33529,-56.8269,-149.529,-102.093
63.055,-1.94727,-10.9646,6.3271,-57.0348,-146.917,-103.431
63.061,-2.04618,-10.8161,6.33318,-56.955,-143.842,-104.506
63.065,-2.10192,-10.6598,6.28379,-56.8727,-140.367,-105.408
63.07,-2.21868,-10.5511,6.22036,-56.4562,-136.527,-106.299
63.075,-2.26442,-10.4526,6.19265,-55.2995,-132.51,-107.089
63.08,-2.26822,-10.4115,6.19252,-53.6613,-128.059,-108.225
63.085,-2.29281,-10.5415,6.15858,-51.7315,-123.394,-109.06
63.09,-2.28206,-10.6243,6.16906,-49.6025,-118.353,-109.499
63.095,-2.27564,-10.6768,6.17875,-47.6216,-112.747,-109.647
63.099,-2.28511,-10.7579,6.10794,-45.571,-107.049,-109.58
63.104,-2.31552,-10.8569,6.10066,-43.3565,-101.021,-109.225
63.109,-2.31315,-10.9821,6.07225,-40.7679,-94.8444,-108.915
63.114,-2.27722,-11.1235,6.07267,-38.2928,-88.2794,-108.598
63.119,-2.25531,-11.3112,6.06488,-35.4906,-81.4693,-108.075
63.124,-2.22289,-11.4311,6.06802,-32.977,-74.2656,-107.491
63.129,-2.23583,-11.5705,6.07249,-30.5034,-66.8297,-106.647
63.134,-2.21292,-11.6384,6.03993,-28.4259,-59.2864,-105.443
63.138,-2.17499,-11.7037,6.02313,-26.4195,-51.8061,-104.051
63.143,-2.14702,-11.7114,5.98471,-24.4235,-44.6097,-102.047
63.148,-2.06354,-11.6774,5.95929,-22.6131,-37.9144,-99.7673
63.153,-2.01916,-11.5847,5.88312,-20.7508,-31.9756,-97.2466
63.158,-1.91801,-11.4811,5.7947,-18.8407,-27.1636,-94.2548
63.163,-1.86025,-11.3195,5.70623,-16.7648,-23.2897,-90.843
63.168,-1.79062,-11.1905,5.54633,-14.6138,-20.8398,-87.0491
63.173,-1.6807,-11.0479,5.51446,-12.3507,-19.5898,-82.9818
63.178,-1.59652,-10.8573,5.49201,-10.3144,-19.642,-78.487
63.182,-1.48751,-10.6736,5.4209,-8.08827,-20.6952,-73.8992
63.187,-1.44812,-10.5276,5.32336,-5.8755,-22.6396,-69.0613
63.192,-1.41101,-10.3424,5.1824,-3.72328,-25.601,-64.1116
63.197,-1.43504,-10.185,5.08958,-1.86688,-29.1308,-59.0287
63.202,-1.42419,-10.0585,5.01514,-0.257292,-33.1478,-54.2798
63.207,-1.47881,-9.89938,4.92065,1.54526,-37.781,-49.4663
63.212,-1.52289,-9.73883,4.82756,3.22307,-42.7391,-44.6108
63.216,-1.54656,-9.6022,4.72184,4.92649,-47.5677,-40.097
63.221,-1.59976,-9.50857,4.60614,6.64332,-52.3465,-35.9558
63.226,-1.70608,-9.48065,4.51972,8.20573,-56.9341,-32.1245
63.231,-1.75247,-9.42535,4.46191,9.42155,-61.1259,-28.2128
63.236,-1.78178,-9.34101,4.4078,10.0858,-65.2268,-24.4389
63.241,-1.87344,-9.2587,4.29858,10.3974,-69.083,-20.7949
63.246,-1.8927,-9.16722,4.25991,10.8255,-72.9427,-17.1873
63.251,-1.96043,-9.04193,4.30402,10.891,-76.4596,-13.9567
63.256,-1.99181,-8.93545,4.24102,11.0032,-79.4539,-11.2443
63.261,-2.07845,-8.8054,4.2239,11.0155,-82.0097,-8.89668
63.265,-2.16484,-8.74231,4.24647,11.2198,-83.9289,-6.81692
63.27,-2.19663,-8.72856,4.22363,11.079,-85.4821,-5.06043
63.276,-2.23606,-8.71505,4.17615,10.7656,-86.8523,-3.46576
63.281,-2.26884,-8.68893,4.19728,10.3303,-88.1625,-1.85741
63.285,-2.30627,-8.6478,4.15357,9.67043,-89.1369,-0.182403
63.291,-2.2944,-8.61331,4.10763,9.02407,-89.8393,1.50956
63.296,-2.33931,-8.58963,4.07387,8.48219,-90.625,3.13422
63.3,-2.30292,-8.55611,4.05848,8.04912,-91.7575,4.52636
63.305,-2.24911,-8.54427,4.10124,7.73943,-92.7576,5.89086
63.311,-2.22491,-8.52455,4.14476,7.30488,-94.0827,7.29726
63.316,-2.17946,-8.45409,4.21937,6.79246,-95.6068,8.88419
63.32,-2.13467,-8.42685,4.26385,6.44802,-97.2722,10.4084
63.325,-2.14898,-8.50197,4.27368,6.61112,-98.9919,11.5138
63.331,-2.14416,-8.63507,4.30235,6.87559,-101.18,12.5802
63.335,-2.07684,-8.79959,4.40595,7.2914,-103.325,13.7178
63.34,-2.05709,-8.95893,4.53363,7.53711,-105.506,15.1345
63.346,-1.98186,-9.11044,4.62905,7.74502,-107.896,16.8613
63.351,-1.99517,-9.29506,4.63683,8.08324,-110.637,18.8362
63.355,-2.05923,-9.49489,4.51522,8.63024,-113.544,20.6764
63.36,-2.10218,-9.67544,4.4111,9.63568,-115.968,22.298
63.366,-2.18605,-9.87798,4.20999,11.0484,-118.167,24.3842
63.371,-2.13975,-10.1787,3.82394,13.2575,-120.544,27.8147
63.375,-1.92674,-10.3932,3.36837,15.869,-124.275,32.878
63.381,-1.69173,-10.4974,2.98873,18.5909,-130.399,39.3547
63.386,-1.4156,-10.5009,2.68291,21.7614,-140.037,47.8266
63.39,-1.02221,-10.337,2.49547,25.6762,-153.462,58.038
63.395,-0.785588,-9.96833,2.49367,29.9562,-169.752,69.0898
63.401,-0.660957,-9.48609,2.62074,34.2823,-187.582,80.2367
63.406,-0.687916,-8.9752,2.79005,38.5019,-205.507,91.6668
63.41,-0.61167,-8.46141,2.96818,42.8206,-223.236,103.397
63.416,-0.540008,-8.03096,3.10755,47.4873,-240.55,114.765
63.421,-0.574129,-7.67656,3.17253,52.1596,-256.919,125.03
63.425,-0.743542,-7.47237,3.20469,56.5984,-271.868,133.788
63.43,-0.935203,-7.21816,3.41845,60.4589,-284.984,142.149
63.436,-0.980125,-7.07494,3.50186,64.2404,-297.207,151.608
63.441,-0.869026,-7.0765,3.47194,68.8523,-309.767,162.33
63.445,-0.809995,-7.03902,3.51282,73.4516,-321.837,171.318
63.45,-0.914379,-7.03854,3.69346,77.2492,-332.893,177.424
63.456,-1.26029,-7.07812,3.77919,80.4902,-341.341,182.1
63.46,-1.57992,-7.27077,3.8517,84.0489,-346.938,186.898
63.465,-1.46442,-7.55926,4.00951,88.0306,-352.639,193.477
63.47,-1.04777,-7.89276,4.26867,92.4545,-359.306,201.161
63.475,-0.686399,-8.12299,4.50121,96.3863,-366.756,208.164
63.48,-0.552504,-8.30854,4.82092,99.2123,-374.867,213.939
63.485,-0.774441,-8.43732,5.37853,100.256,-381.192,217.509
63.49,-1.21314,-8.4225,6.04791,100.163,-384.699,219.816
63.494,-1.62126,-8.38307,6.53889,100.862,-384.832,222.282
63.499,-1.99332,-8.50611,6.9522,101.979,-381.774,223.721
63.504,-2.38156,-8.76541,7.39145,101.85,-375.835,222.102
63.509,-2.8941,-9.05067,8.14352,99.1904,-367.215,216.401
63.514,-3.58832,-9.20554,9.12145,94.4743,-355.524,208.307
63.519,-4.19652,-9.48237,9.71039,89.1499,-340.182,200.57
63.524,-4.55432,-9.95647,10.1236,82.6998,-322.499,193.505
63.529,-4.82501,-10.1553,10.9831,74.9542,-304.874,185.775
63.534,-5.14193,-10.1527,11.787,66.9699,-287.629,177.316
63.538,-5.56386,-10.164,12.2064,58.0778,-267.896,169.188
63.543,-5.9432,-10.0974,12.513,47.3801,-245.422,160.74
63.548,-6.25026,-9.95706,12.8188,34.6968,-220.594,151.226
63.553,-6.63144,-9.90903,12.9761,19.7358,-193.226,139.69
63.558,-7.06837,-9.95891,12.8509,2.43476,-162.211,126.438
63.563,-7.40534,-10.0575,12.6326,-16.6383,-128.443,111.74
63.568,-7.53012,-10.2509,12.2829,-36.8797,-93.1678,96.6322
63.573,-7.46925,-10.4038,11.7195,-57.3231,-58.4319,81.545
63.577,-7.21367,-10.4955,11.0175,-76.1466,-25.9196,66.129
63.582,-6.95991,-10.5535,10.258,-92.6253,3.84291,49.8906
63.587,-6.89679,-10.4766,9.45311,-105.949,32.1695,32.6243
63.592,-7.071,-10.392,8.85254,-116.52,62.0845,13.5711
63.597,-7.53969,-10.3419,8.38963,-125.983,96.0793,-7.25527
63.602,-8.08729,-10.3211,8.07923,-135.274,134.462,-29.1985
63.607,-8.23875,-10.3706,7.82314,-144.483,176.173,-50.5936
63.611,-7.83984,-10.426,7.32025,-152.936,218.384,-69.6055
63.616,-7.00822,-10.3587,6.77648,-159.476,257.456,-85.0395
63.621,-5.95156,-10.2147,6.06129,-163.631,290.388,-96.1004
63.626,-4.74504,-9.76282,5.45855,-164.754,315.449,-102.806
63.631,-3.64898,-9.06688,4.96052,-161.805,332.647,-106.538
63.636,-2.8394,-8.26779,4.45103,-153.464,343.374,-108.74
63.641,-2.2966,-7.77411,3.95302,-141.081,349.656,-109.641
63.646,-1.87207,-7.52268,3.67959,-126.798,352.212,-109.412
63.651,-1.45567,-7.54367,3.43925,-112.385,352.179,-107.276
63.656,-1.11294,-7.81972,3.21313,-99.1966,349.723,-103.489
63.66,-0.743107,-8.22164,3.05432,-87.8109,345.024,-98.2875
63.666,-0.359874,-8.41891,3.01514,-77.544,338.423,-91.9717
63.671,-0.0750241,-8.5279,2.84457,-66.845,330.508,-85.576
63.676,-0.0160335,-8.58255,2.60406,-56.0064,321.541,-78.2162
63.68,0.118623,-8.78063,2.36279,-44.4239,311.658,-70.8417
63.686,0.10827,-9.30132,2.13905,-34.3634,301.021,-64.1736
63.691,0.0634679,-9.79947,2.23791,-27.2567,290.052,-57.3062
63.695,-0.0345867,-10.0347,2.33313,-20.3579,278.839,-49.8495
63.7,-0.0618064,-10.1706,2.25908,-12.5449,267.811,-42.145
63.706,-0.192928,-10.436,2.10586,-4.34637,256.566,-35.2353
63.71,-0.291285,-10.8061,2.01989,3.0164,245.099,-29.3455
63.715,-0.390526,-11.2585,2.11665,8.94306,233.639,-23.756
63.721,-0.551459,-11.6347,2.24958,13.6901,223.196,-18.1533
63.726,-0.738123,-11.9319,2.34037,17.84,213.752,-12.7188
63.73,-0.898381,-12.1989,2.51305,21.5531,205.441,-7.978
63.735,-1.06034,-12.4831,2.61746,24.8908,198.026,-3.71075
63.741,-1.1967,-12.7818,2.69262,27.1857,191.191,0.43657
63.746,-1.29487,-13.0632,2.84047,28.3389,184.345,4.82041
63.75,-1.31803,-13.2623,3.12444,28.8575,177.447,9.22472
63.756,-1.45894,-13.3279,3.291,29.3259,170.037,13.5189
63.761,-1.49719,-13.2818,3.58291,29.9413,162.094,17.9267
63.765,-1.4465,-13.2605,3.85666,30.1452,153.173,22.9588
63.77,-1.67079,-13.2041,3.85607,29.7914,142.955,28.1768
63.776,-1.78221,-12.8343,3.9776,29.9954,132.352,32.9641
63.781,-1.82269,-12.6752,4.00918,29.8614,122.633,36.5778
63.785,-1.84762,-12.7009,4.02836,28.1518,112.959,39.8505
63.791,-1.76569,-12.4399,4.36272,25.3947,102.906,43.9043
63.796,-1.61671,-11.99,4.50675,23.4662,93.3365,48.3128
63.801,-1.46842,-11.5259,4.389,23.1895,83.7286,52.8957
63.805,-1.22752,-11.0893,4.36195,23.3191,73.2968,57.6331
63.811,-1.03511,-10.8219,4.26033,23.6371,62.9094,61.9434
63.816,-1.0627,-10.6593,4.15556,23.4129,53.5307,65.4393
63.82,-1.1181,-10.5711,4.13004,22.0724,46.126,68.0293
63.825,-1.19286,-10.5038,4.1089,19.4569,40.9761,70.6147
63.831,-1.1617,-10.3638,4.1146,16.4722,38.5566,73.182
63.835,-1.05224,-10.1371,4.00845,14.2447,37.5741,75.3691
63.84,-0.884678,-9.88403,3.81222,12.7236,37.3102,76.878
63.846,-0.678922,-9.69726,3.64855,11.4711,37.0706,78.2201
63.851,-0.538584,-9.42563,3.55656,10.2291,36.4958,79.2178
63.855,-0.52848,-9.24396,3.42589,9.27901,35.8973,79.9231
63.86,-0.533856,-9.0904,3.34503,8.62176,35.4822,80.5235
63.865,-0.560251,-8.93991,3.26144,8.51444,35.4027,81.0088
63.87,-0.598144,-8.82718,3.24141,8.09759,35.7206,81.0762
63.875,-0.680104,-8.74819,3.21212,7.63367,36.5315,80.738
63.88,-0.765743,-8.67908,3.17199,7.25583,37.8699,80.2136
63.885,-0.863204,-8.66309,3.13137,6.67822,39.4661,79.2266
63.889,-0.925939,-8.71047,3.07962,5.40959,41.1901,78.0618
63.894,-0.889173,-8.65785,3.24095,3.20514,42.3503,77.0276
63.899,-0.831225,-8.47361,3.37673,1.63627,42.9284,76.0386
63.904,-0.855463,-8.24553,3.35692,1.30901,43.0803,75.1774
63.909,-0.765149,-8.02189,3.35087,2.07753,42.707,74.3957
63.914,-0.724902,-7.84995,3.31804,3.25304,41.4947,73.5664
63.919,-0.730791,-7.7382,3.28806,4.77494,39.6645,72.2672
63.924,-0.797639,-7.73753,3.33123,5.90546,37.4404,70.5714
63.929,-0.919275,-7.76748,3.42716,6.54566,35.6904,68.6913
63.933,-1.09948,-7.77449,3.47776,6.55711,34.6586,66.7745
63.938,-1.20808,-7.7995,3.51834,6.12131,34.4759,64.7752
63.943,-1.25029,-7.81959,3.52981,5.3631,34.6258,62.5287
63.948,-1.25747,-7.85656,3.54265,4.59333,35.3003,59.7823
63.953,-1.27083,-7.87684,3.53397,4.01346,35.5926,56.8617
63.958,-1.2285,-7.90767,3.51176,3.55911,35.576,53.9642
63.963,-1.21401,-7.93322,3.49631,2.96121,35.2412,51.4589
63.968,-1.13798,-7.93534,3.43446,2.3105,34.2326,49.2613
63.972,-1.10374,-7.9134,3.3649,1.81646,32.5914,47.4248
63.977,-1.07537,-7.85942,3.33784,1.29609,30.6135,45.742
63.982,-1.04567,-7.80245,3.33084,0.527526,28.178,44.1291
63.987,-1.00364,-7.69914,3.2944,0.256649,25.1674,42.1176
63.992,-0.933942,-7.61505,3.26815,0.25683,21.962,40.3795
63.997,-0.870283,-7.46426,3.28041,0.539263,18.4339,38.7586
64.002,-0.788529,-7.36287,3.2428,1.38991,14.6308,37.1414
64.006,-0.716083,-7.30627,3.27652,2.43717,10.5815,35.3584
64.011,-0.758787,-7.30707,3.21996,3.53663,6.37965,33.3471
64.016,-0.756345,-7.3985,3.23685,4.72074,2.51274,31.1636
64.021,-0.720279,-7.47257,3.32788,5.60435,-1.26216,28.6218
64.026,-0.69594,-7.58348,3.43317,6.6664,-4.67225,25.7953
64.031,-0.741401,-7.74617,3.52901,7.3146,-7.37957,23.0078
64.036,-0.764043,-7.90839,3.63359,7.99686,-9.4066,20.2625
64.041,-0.723356,-8.06724,3.66716,8.53078,-11.0915,17.4178
64.046,-0.724932,-8.19643,3.7071,8.77778,-12.4122,14.2314
64.051,-0.698414,-8.44642,3.80094,8.68278,-13.601,10.9604
64.055,-0.723385,-8.61671,3.89886,8.41299,-14.7844,7.74366
64.061,-0.744953,-8.82361,3.99514,7.65596,-15.7278,4.58144
64.066,-0.685718,-8.96649,4.10292,6.77643,-16.5963,1.63471
64.07,-0.653491,-9.13041,4.19042,5.77887,-17.6536,-1.26157
64.075,-0.598055,-9.29827,4.28843,5.01133,-19.1031,-4.20197
64.081,-0.573197,-9.5131,4.40574,4.22267,-20.9459,-6.96577
64.085,-0.497488,-9.70133,4.53862,3.26833,-23.0886,-9.61581
64.09,-0.415995,-9.88933,4.59332,1.88509,-25.612,-11.9624
64.096,-0.371306,-10.023,4.70182,0.281921,-28.4602,-13.7506
64.101,-0.309633,-10.0941,4.79418,-1.11538,-31.6375,-15.2555
64.105,-0.211861,-10.1121,4.86822,-2.72069,-35.2823,-16.5606
64.11,-0.168591,-10.1318,4.97699,-4.20253,-39.4136,-17.6263
64.116,-0.092364,-10.1462,5.07825,-5.39832,-44.1165,-18.5382
64.121,0.0399645,-10.1756,5.16773,-6.57592,-49.4301,-19.3312
64.125,0.181026,-10.2669,5.24302,-7.32383,-54.9968,-20.3624
64.131,0.239578,-10.3683,5.3767,-7.94148,-60.914,-21.1459
64.136,0.332082,-10.5081,5.51041,-8.53414,-67.3059,-21.802
64.14,0.385905,-10.6419,5.61603,-9.18435,-73.7109,-22.6418
64.145,0.412007,-10.7729,5.69675,-10.1659,-79.8745,-23.1316
64.151,0.393162,-10.9276,5.78053,-10.832,-86.1101,-24.0393
64.156,0.3291,-11.039,5.82761,-11.489,-91.8098,-24.7652
64.16,0.244146,-11.1384,5.87087,-12.0712,-97.0767,-25.9102
64.166,0.119443,-11.2534,5.88472,-12.5854,-101.824,-27.0934
64.171,-0.00428977,-11.2961,5.91061,-13.4704,-105.716,-28.5253
64.176,-0.207907,-11.2334,5.89518,-14.5288,-108.791,-30.1842
64.18,-0.45542,-11.1905,5.85353,-15.2724,-111.083,-31.9368
64.186,-0.587225,-11.1329,5.79523,-15.7432,-112.994,-34.2886
64.191,-0.763378,-11.0411,5.70388,-15.928,-114.239,-37.0207
64.195,-0.96442,-10.9936,5.58527,-15.7316,-115.215,-39.9928
64.2,-1.12297,-10.9455,5.45809,-15.3332,-115.651,-42.9855
64.206,-1.33429,-10.8208,5.31495,-14.8735,-115.705,-46.0247
64.21,-1.60712,-10.7207,5.20239,-14.0916,-114.853,-49.351
64.215,-1.87016,-10.5776,5.11709,-13.2796,-113.295,-53.0616
64.221,-2.12484,-10.4619,4.9484,-12.3308,-110.712,-57.0502
64.226,-2.39685,-10.3706,4.83938,-11.0135,-107.306,-61.3751
64.23,-2.55835,-10.3215,4.76711,-9.9414,-103.131,-65.5361
64.235,-2.67039,-10.3,4.61454,-8.82906,-98.1253,-69.4445
64.241,-2.85647,-10.2662,4.49702,-7.74481,-92.8075,-73.0628
64.246,-2.97189,-10.1906,4.37666,-6.45368,-86.9921,-76.4766
64.25,-3.03796,-10.0879,4.29932,-5.05274,-80.872,-79.1563
64.255,-3.0823,-9.92651,4.15695,-3.65287,-74.7218,-81.4316
64.26,-3.10766,-9.83807,4.03447,-1.98094,-68.5744,-83.4485
64.265,-3.03719,-9.74803,3.94555,-0.375929,-62.7385,-85.2387
64.27,-2.94673,-9.72597,3.86312,1.44639,-57.1372,-86.5131
64.275,-2.81614,-9.63921,3.9194,3.36872,-51.7521,-87.033
64.28,-2.6596,-9.58779,3.93353,5.10455,-46.838,-86.8729
64.284,-2.45569,-9.55543,3.94051,6.88056,-42.553,-86.3157
64.289,-2.2853,-9.47185,3.97982,8.64849,-38.9931,-85.0961
64.294,-2.0322,-9.42637,4.04684,10.2925,-36.1699,-83.3798
64.299,-1.84268,-9.44939,4.12595,11.9208,-33.7963,-81.4642
64.304,-1.66261,-9.51861,4.19539,13.602,-31.9871,-79.3223
64.309,-1.5013,-9.63016,4.30551,15.1101,-30.599,-76.8731
64.314,-1.30915,-9.71327,4.41514,16.3164,-29.708,-74.1114
64.319,-1.20248,-9.82786,4.47898,17.3677,-29.2299,-71.1906
64.324,-1.09216,-9.91394,4.6001,18.0445,-28.8854,-68.0214
64.328,-0.960132,-9.98983,4.67712,18.754,-28.6721,-64.5287
64.333,-0.935168,-10.0923,4.75137,19.1095,-29.0255,-60.8847
64.338,-0.876313,-10.1523,4.76903,19.0276,-29.4691,-57.1985
64.343,-0.823767,-10.2106,4.76625,19.0979,-30.5038,-53.376
64.348,-0.841211,-10.2675,4.79646,18.8792,-31.971,-49.4119
64.353,-0.792571,-10.2998,4.79466,18.8322,-33.8285,-45.4737
64.358,-0.814962,-10.3533,4.80867,18.4621,-36.1797,-41.7032
64.362,-0.915206,-10.3398,4.77548,17.9634,-38.607,-37.9275
64.367,-1.03727,-10.3391,4.68958,17.3004,-41.1417,-34.0522
64.372,-1.13451,-10.2618,4.5952,16.5572,-43.6563,-30.437
64.377,-1.31232,-10.1522,4.49671,15.9366,-46.2457,-27.0372
64.382,-1.41152,-10.0202,4.42294,15.1653,-48.8928,-23.9105
64.387,-1.56854,-9.92036,4.36003,14.5995,-51.4723,-21.1572
64.392,-1.68338,-9.76926,4.23408,13.9746,-53.6384,-18.8406
64.397,-1.69259,-9.5784,4.04039,13.3406,-55.4992,-16.5834
64.402,-1.63521,-9.3251,4.10299,13.0707,-56.8912,-14.2303
64.406,-1.77825,-9.19169,4.14624,13.3071,-58.7044,-11.2355
64.411,-1.93259,-9.15796,3.96945,12.8841,-62.5705,-7.27971
64.416,-1.94311,-9.10707,3.60796,11.2546,-68.4401,-2.27588
64.421,-1.76989,-8.95231,3.29446,10.9352,-75.4545,3.35196
64.426,-1.81591,-8.75075,3.30406,12.8845,-82.3048,8.03427
64.431,-2.10915,-8.63548,3.41476,15.1963,-87.7036,10.6547
64.436,-2.56034,-8.4665,3.72227,16.1974,-89.085,10.9261
64.441,-2.99459,-8.30481,3.89134,16.1266,-85.2266,9.70008
64.445,-3.2543,-8.19222,3.94877,14.7434,-76.8616,7.50982
64.45,-3.16777,-8.09565,3.84636,13.359,-66.8469,4.33062
64.456,-2.91736,-8.04619,3.67847,12.9568,-57.8102,1.11614
64.46,-2.64901,-8.0912,3.52919,12.8257,-51.6666,-1.14597
64.465,-2.42524,-8.14575,3.43115,12.9049,-48.5769,-2.01944
64.471,-2.26454,-8.20952,3.32489,12.9768,-48.0843,-1.63112
64.476,-2.21349,-8.18271,3.40562,13.5705,-49.0086,-0.45376
64.48,-2.243,-8.15972,3.40527,14.6265,-50.3172,0.808846
64.485,-2.3053,-8.19407,3.38588,15.5682,-51.4447,1.89172
64.491,-2.29097,-8.19869,3.44854,16.2375,-52.3476,3.10465
64.496,-2.22669,-8.23271,3.52946,16.7517,-53.0442,4.20959
64.5,-2.17798,-8.21395,3.60356,17.2793,-53.6911,4.94182
64.506,-2.05816,-8.27246,3.68793,17.4468,-54.2144,5.73758
64.511,-1.99376,-8.33996,3.7887,17.6967,-54.8024,6.1878
64.515,-2.01185,-8.45375,3.8709,18.0063,-55.1998,6.60561
64.52,-1.98179,-8.58066,3.88325,18.0367,-55.5087,7.14522
64.526,-1.95606,-8.64233,3.95596,18.0377,-55.9203,7.59998
64.531,-1.99287,-8.80347,3.95034,17.8887,-56.1822,7.96941
64.535,-1.97432,-8.98558,3.9957,17.9631,-56.131,8.40876
64.541,-1.98857,-9.17645,4.00104,17.939,-56.0679,8.73617
64.546,-2.09622,-9.27868,4.00387,17.8348,-55.7625,9.19307
64.551,-2.18937,-9.39396,3.89331,17.6337,-55.0304,9.91341
64.555,-2.28715,-9.46425,3.65053,17.3526,-54.056,10.7632
64.561,-2.31107,-9.50727,3.49722,17.6933,-53.3168,11.3741
64.566,-2.35088,-9.55651,3.42251,18.4281,-52.8623,11.8413
64.57,-2.31113,-9.59448,3.34435,19.1373,-52.7595,12.2606
64.575,-2.2386,-9.57019,3.41376,19.3078,-52.8978,13.0279
64.581,-2.20263,-9.46622,3.40622,19.418,-52.9896,14.419
64.585,-2.19266,-9.31218,3.37461,19.6993,-53.4569,15.986
64.59,-2.12437,-9.16272,3.36961,20.2075,-54.0823,17.2702
64.596,-2.14086,-9.06385,3.45204,21.0765,-54.8462,18.2891
64.601,-2.14167,-9.02011,3.50964,21.9062,-55.3926,19.3655
64.605,-2.14456,-8.97167,3.52778,22.5224,-55.7311,20.3522
64.61,-2.09651,-8.93012,3.58136,22.9034,-55.621,21.3602
64.616,-2.13759,-8.86399,3.58792,23.1382,-54.9912,22.0527
64.621,-2.20064,-8.83834,3.64085,23.3948,-53.983,22.3667
64.625,-2.24541,-8.78211,3.63655,23.5817,-52.4486,22.1988
64.631,-2.31977,-8.78518,3.60757,23.6995,-50.1804,21.7366
64.636,-2.43556,-8.86461,3.63041,23.6637,-47.5136,21.1522
64.64,-2.43519,-8.91645,3.66899,23.6329,-44.5066,19.9338
64.645,-2.50929,-9.05248,3.67009,23.7344,-41.2757,18.0904
64.65,-2.54971,-9.23836,3.71986,24.0271,-37.6155,15.7916
64.655,-2.59779,-9.53907,3.75637,24.1253,-33.5316,13.4424
64.66,-2.66071,-9.81098,3.79069,24.0774,-28.9279,10.7775
64.665,-2.71663,-9.97635,3.86931,23.6769,-24.0795,7.98274
64.67,-2.7067,-10.297,3.86839,22.9993,-18.9649,5.09356
64.675,-2.72007,-10.5465,3.8824,22.5283,-13.5753,2.01872
64.679,-2.67313,-10.7892,3.91205,21.7175,-8.49519,-1.08982
64.684,-2.58822,-11.0324,3.91869,21.0142,-3.73229,-4.02695
64.689,-2.50874,-11.248,3.96964,20.4397,0.487642,-6.70217
64.694,-2.42544,-11.4086,3.96292,20.1579,4.04984,-9.60468
64.699,-2.37948,-11.675,3.95955,19.9079,7.27343,-12.3714
64.704,-2.38303,-11.8816,4.00087,19.639,10.2813,-15.1776
64.709,-2.32073,-12.089,4.14091,18.9904,13.2122,-17.758
64.714,-2.1923,-12.2382,4.29429,18.0869,15.7717,-19.8874
64.719,-2.02568,-12.4225,4.42865,16.9384,17.6399,-21.7083
64.723,-1.87696,-12.6454,4.50929,15.9791,19.1409,-23.5015
64.728,-1.79313,-12.8565,4.62218,14.9669,19.9683,-24.9868
64.733,-1.71911,-13.0445,4.71741,13.7014,20.6171,-26.0354
64.738,-1.70556,-13.2395,4.73183,12.1583,20.9277,-26.7094
64.743,-1.76681,-13.3971,4.7925,10.3801,21.0681,-27.0948
64.748,-1.75045,-13.4712,4.90082,8.50669,21.2085,-26.9638
64.753,-1.77157,-13.5866,4.94114,6.44041,21.346,-26.6304
64.757,-1.87289,-13.5944,4.90661,4.46657,21.5431,-26.0057
64.762,-1.87402,-13.566,4.90018,2.35131,21.5993,-25.2052
64.767,-1.9689,-13.4992,4.76603,0.346571,21.7233,-24.2615
64.772,-2.11567,-13.3794,4.68572,-1.75644,22.0815,-23.0402
64.777,-2.28568,-13.242,4.51285,-3.62628,22.6546,-21.5019
64.782,-2.47787,-13.0432,4.40773,-5.68981,23.8588,-19.8263
64.787,-2.66578,-12.7464,4.20997,-7.85007,25.4897,-17.8871
64.792,-2.83315,-12.4273,3.94692,-9.81036,27.7039,-15.363
64.797,-2.91284,-12.0488,3.79852,-11.4359,29.2685,-11.904
64.801,-2.93739,-11.6603,3.5844,-12.6784,30.8984,-8.04263
64.806,-2.96767,-11.2073,3.44227,-13.8309,32.1879,-4.06354
64.811,-2.99158,-10.7396,3.33529,-14.6026,33.1429,0.144429
64.816,-2.93674,-10.2829,3.27281,-15.0665,33.9047,4.12786
64.821,-2.87013,-9.90398,3.20744,-15.0567,34.9957,8.16243
64.826,-2.7755,-9.61354,3.16026,-14.615,36.0111,11.7427
64.831,-2.60116,-9.39387,3.15045,-14.224,37.1495,15.1476
64.835,-2.40372,-9.30786,3.1636,-13.5578,38.4481,18.394
64.84,-2.22292,-9.26898,3.25691,-13.3818,39.6018,21.7233
64.846,-2.07,-9.32574,3.28624,-13.8103,40.7919,24.9556
64.851,-1.90334,-9.3966,3.3934,-14.348,42.1068,28.0307
64.855,-1.73701,-9.4779,3.56506,-15.0803,43.6228,30.6659
64.86,-1.62859,-9.67363,3.72322,-15.9806,45.6771,32.7071
64.866,-1.53321,-9.90919,3.8756,-17.0235,48.0023,34.4697
64.871,-1.38758,-10.2734,4.12165,-18.4915,50.9358,36.0383
64.875,-1.27604,-10.6806,4.35914,-20.8608,53.971,37.5778
64.881,-1.078,-10.9851,4.63861,-24.0601,57.1707,38.8995
64.886,-0.897004,-11.2674,4.99026,-27.6076,60.3515,39.926
64.89,-0.683273,-11.5572,5.36716,-31.087,63.4324,41.1817
64.895,-0.407725,-11.9129,5.57825,-34.132,66.2188,42.4236
64.901,-0.0668603,-12.2676,5.78948,-37.3284,67.502,43.739
64.906,0.100754,-12.3758,6.04855,-41.5556,67.5401,44.3309
64.91,0.109567,-12.6332,6.10233,-44.9789,67.9179,45.4171
64.916,0.283916,-12.9379,6.12828,-47.6745,66.9943,48.3547
64.921,0.407651,-13.0049,6.24226,-51.6541,65.4881,51.128
64.925,0.331049,-12.9338,6.23098,-57.1294,64.1816,52.7744
64.93,0.206419,-12.8966,5.93962,-61.591,62.859,55.6248
64.936,0.255489,-12.7849,5.52171,-63.7289,59.7568,60.5704
64.941,0.300231,-12.643,5.10301,-62.8718,53.6422,66.1911
64.945,0.198167,-12.521,4.81127,-59.9484,44.2474,71.3782
64.95,-0.107952,-12.4414,4.64216,-56.2853,33.1236,76.0309
64.956,-0.591567,-12.3952,4.59945,-53.4455,22.9195,80.2071
64.96,-1.01862,-12.2724,4.48903,-51.731,15.4393,84.1968
64.965,-1.30814,-12.1397,4.38413,-50.8422,10.7805,87.5145
64.971,-1.42365,-11.9297,4.31467,-50.3329,8.50552,89.7877
64.976,-1.47086,-11.6375,4.21474,-49.6007,7.55927,91.207
64.98,-1.47605,-11.338,4.13617,-48.6054,7.31279,92.1696
64.985,-1.55291,-11.0192,4.08341,-47.1917,7.55996,92.7835
64.991,-1.6319,-10.7258,4.0586,-45.2092,8.3583,93.3219
64.996,-1.62822,-10.4207,4.05638,-42.5705,8.98254,93.9306
65,-1.54086,-10.2135,4.07471,-39.7796,9.23786,95.0653
65.006,-1.48026,-9.96705,4.00315,-36.9985,8.97221,96.2199
65.011,-1.46097,-9.7159,3.99193,-34.1319,8.40769,97.2677
65.015,-1.45402,-9.5111,4.01016,-31.2246,7.81821,98.2437
65.02,-1.42152,-9.30216,4.04554,-28.4496,7.40167,99.188
65.026,-1.42959,-9.14848,4.06893,-25.8503,7.62437,100.121
65.031,-1.49164,-9.00314,4.0971,-24.0946,8.58077,100.943
65.035,-1.46306,-8.83431,4.12385,-22.7975,10.2917,101.448
65.04,-1.42679,-8.74987,4.11919,-21.8462,12.3834,101.832
65.045,-1.36928,-8.61354,4.16145,-21.2568,15.0254,102.027
65.05,-1.34366,-8.5097,4.23353,-20.9898,17.9999,101.974
65.055,-1.28951,-8.42141,4.22141,-20.9716,21.1509,101.926
65.06,-1.25199,-8.28425,4.2317,-21.0813,24.4333,102.071
65.065,-1.26013,-8.21287,4.23075,-21.3818,27.6681,101.813
65.07,-1.25489,-8.10376,4.26906,-22.0243,31.0348,101.471
65.075,-1.25267,-8.02733,4.31701,-22.5799,34.2951,101.007
65.079,-1.23938,-7.97474,4.29,-23.3436,37.7069,100.476
65.084,-1.22323,-7.90341,4.27031,-24.2647,40.9251,99.6632
65.089,-1.21523,-7.8753,4.26103,-25.1791,44.2792,98.859
65.094,-1.17312,-7.87032,4.25066,-26.1026,47.0975,97.873
65.099,-1.09792,-7.86358,4.18526,-26.9359,49.5753,97.0046
65.104,-0.978668,-7.85306,4.19646,-27.8352,51.7116,95.9583
65.109,-0.917341,-7.84239,4.18285,-28.6347,53.1872,94.8871
65.114,-0.818184,-7.84613,4.16319,-29.419,54.2861,93.6962
65.118,-0.707979,-7.85511,4.11499,-30.2321,54.6484,92.4858
65.123,-0.659186,-7.87358,4.09624,-30.7213,54.6482,91.1186
65.128,-0.561132,-7.94609,4.11206,-31.0993,54.0817,89.9597
65.133,-0.453954,-8.01888,4.12503,-31.3404,53.0787,88.6674
65.138,-0.390124,-8.05223,4.0915,-31.7259,51.5499,87.5794
65.143,-0.346018,-8.10311,4.04472,-31.9335,49.7818,86.6758
65.148,-0.292353,-8.09268,4.00648,-32.2857,47.4879,85.9765
65.152,-0.238017,-8.0876,4.01932,-32.4145,44.6659,85.2247
65.157,-0.198546,-8.0886,3.96884,-32.262,41.3138,84.4022
65.162,-0.138576,-8.03117,3.93005,-32.0838,37.4723,83.5052
65.167,-0.100119,-7.97122,3.90258,-31.7767,33.0877,82.8702
65.172,-0.0545765,-7.93798,3.88436,-31.1118,28.402,82.3877
65.177,-0.0100418,-7.84381,3.88915,-30.608,23.1525,81.854
65.182,-0.0121176,-7.75564,3.88988,-29.8334,17.4859,81.2044
65.187,0.00224689,-7.66426,3.89477,-28.931,11.6878,80.3619
65.192,0.0217699,-7.58096,3.85248,-27.9189,5.75024,79.4747
65.196,0.0161286,-7.48757,3.84124,-27.0174,-0.255057,78.4446
65.201,0.0555055,-7.40275,3.86262,-25.8942,-6.36218,77.1089
65.206,0.0739264,-7.30475,3.89601,-24.7121,-12.4859,75.5533
65.211,0.0815334,-7.25477,3.91552,-23.4938,-18.593,73.7013
65.216,0.0588014,-7.22151,3.95208,-22.3617,-24.6086,71.7685
65.221,0.104727,-7.22268,4.00302,-21.2003,-30.7438,69.5309
