t,acc_x,acc_y,acc_z,gyr_x,gyr_y,gyr_z
55.003,0.715669,-10.835,4.40306,130.511,24.1935,156.801
55.007,0.349958,-9.3722,4.89529,122.92,26.9434,147.74
55.013,-0.170508,-8.16192,5.11525,114.924,26.5111,140.779
55.017,-0.698101,-7.80663,5.05611,107.274,23.6388,134.681
55.023,-0.453429,-8.25017,4.87908,101.059,18.1886,128.05
55.027,0.225529,-8.87234,4.52028,95.7718,9.65765,122.265
55.033,0.893603,-8.9001,4.29497,92.6985,-0.00800307,119.269
55.038,1.57653,-8.36167,4.03104,91.2784,-6.90715,120.178
55.042,0.953519,-7.18744,4.152,87.5396,-8.39026,121.589
55.048,-0.731662,-5.64486,4.49949,80.1146,-1.81243,118.282
55.052,-1.82977,-3.99527,4.87576,68.3696,0.129035,112.866
55.058,-2.77004,-2.6233,4.87535,55.1938,-6.80641,105.634
55.062,-2.9319,-1.44123,4.31484,42.5152,-20.7776,97.8555
55.068,-2.37345,-1.30357,4.76099,31.5812,-34.2058,95.9691
55.072,-1.42388,-2.39969,5.71219,25.0704,-44.5222,95.4325
55.077,-1.12468,-2.91717,4.60077,21.5866,-51.5196,80.3662
55.083,-1.8437,-1.4771,2.35245,6.41579,-55.5431,56.8403
55.087,-1.64803,-1.42451,1.34654,-17.7911,-54.0469,44.2232
55.093,0.163509,-2.32281,0.80698,-33.3663,-50.6527,32.7537
55.097,1.51333,-3.24198,0.0667519,-45.7844,-49.4362,22.853
55.103,2.65116,-3.92523,-0.195117,-57.9685,-46.6403,14.4177
55.107,3.43631,-4.18338,-0.19499,-68.0412,-43.2191,4.56009
55.113,3.86183,-4.24018,-0.230786,-76.2944,-41.2565,-5.57921
55.117,3.99096,-4.07591,-0.296162,-84.3654,-39.7427,-15.1267
55.122,3.79822,-3.76273,-0.0833071,-92.9864,-37.8807,-23.2713
55.127,3.59924,-3.37494,0.234493,-101.249,-36.8907,-29.8773
55.132,3.51638,-3.04821,0.579399,-108.776,-37.1452,-35.583
55.137,3.45648,-2.97315,0.935355,-115.803,-38.2772,-40.4395
55.142,3.28136,-2.99698,1.3259,-122.203,-39.6686,-46.2842
55.147,2.8027,-2.92289,1.87677,-128.501,-41.4249,-52.8776
55.152,2.18416,-2.83151,2.2566,-134.738,-44.4312,-59.0967
55.156,1.68397,-2.92424,2.45988,-140.492,-49.3504,-64.0887
55.161,1.58324,-3.19874,2.56334,-145.753,-55.6528,-68.1858
55.166,1.50682,-3.47165,2.61112,-150.716,-63.0915,-71.6182
55.171,1.40906,-3.73786,2.6918,-154.832,-71.0285,-74.8523
55.176,1.40598,-3.93829,2.66574,-158.762,-78.0561,-78.6935
55.181,1.44368,-4.09494,2.60351,-162.996,-84.0257,-83.7291
55.186,1.50605,-4.2156,2.68251,-167.922,-90.3056,-89.0706
55.19,1.64915,-4.29968,2.85183,-172.403,-97.5478,-93.7676
55.195,1.7689,-4.40128,3.00466,-176.247,-105.671,-97.5605
55.2,1.85193,-4.53442,3.12612,-179.87,-114.514,-100.406
55.205,1.81127,-4.71048,3.25411,-183.226,-122.585,-103.333
55.21,1.80824,-4.83474,3.50761,-186.974,-129.909,-106.373
55.215,1.76582,-5.04063,3.66983,-190.812,-137.445,-108.193
55.22,1.8335,-5.38423,3.70559,-194.123,-145.4,-109.07
55.225,2.01138,-5.64935,3.75507,-197.34,-153.013,-109.823
55.229,2.04831,-5.92648,3.7929,-201.2,-159.993,-110.339
55.234,2.25425,-6.23868,3.84298,-204.719,-167.347,-110.319
55.239,2.52074,-6.48248,3.79291,-208.164,-173.807,-110.361
55.244,2.66694,-6.60783,3.90427,-212.418,-180.09,-110.316
55.249,2.63582,-6.93866,4.05672,-217.311,-187.479,-109.678
55.254,2.73135,-7.32104,4.22097,-221.644,-193.747,-109.162
55.259,2.96858,-7.74839,4.47593,-225.837,-198.456,-108.766
55.264,3.14071,-8.22514,4.81722,-229.787,-203.026,-108.366
55.269,3.24383,-8.66099,5.21282,-233.395,-207.242,-108.33
55.273,3.39799,-9.06717,5.58251,-236.548,-211.464,-108.559
55.278,3.54214,-9.53028,5.96843,-238.838,-216.885,-107.867
55.283,3.64973,-10.0263,6.47052,-239.634,-223.255,-105.798
55.288,3.65698,-10.4944,6.97783,-239.735,-229.012,-103.75
55.293,3.86713,-10.9012,7.56115,-240.919,-234.388,-102.936
55.298,4.01959,-11.5549,7.97244,-241.567,-240.586,-101.633
55.303,4.23893,-12.2442,8.22931,-242.526,-242.773,-100.308
55.308,4.50365,-12.7527,8.40495,-245.685,-239.281,-100.911
55.312,4.45348,-13.4453,8.92066,-251.184,-231.795,-103.071
55.318,4.27407,-14.087,9.96496,-257.121,-221.633,-106.586
55.322,3.69126,-14.5244,11.4904,-261.815,-213.621,-109.451
55.327,2.78834,-14.7537,13.1507,-264.111,-210.377,-110.891
55.333,1.722,-14.7389,14.3539,-264.853,-209.11,-112.182
55.337,0.393067,-14.5106,15.2148,-265.799,-206.363,-114.013
55.343,-0.957062,-14.316,15.8784,-267.059,-200.995,-116.572
55.347,-2.05183,-14.373,15.9116,-268.035,-193.464,-119.103
55.353,-2.58203,-14.7916,15.3345,-269.276,-183.204,-122.548
55.357,-3.13092,-15.1002,14.8324,-270.647,-168.938,-128.581
55.363,-3.65902,-15.3929,15.0931,-270.376,-152.933,-135.191
55.368,-4.3103,-15.797,16.1635,-267.194,-139.662,-137.425
55.373,-4.6297,-15.8764,17.2564,-260.992,-131.374,-133.548
55.378,-5.41489,-15.7499,18.0885,-253.4,-126.182,-124.868
55.382,-6.38509,-15.1439,18.8286,-243.566,-122.925,-112.711
55.388,-7.58631,-14.1583,19.5117,-231.573,-121.09,-98.2505
55.392,-8.85928,-12.8894,20.1022,-217.891,-120.856,-82.7412
55.398,-9.96196,-11.6559,20.5379,-202.055,-122.074,-66.1331
55.402,-10.6047,-10.4675,21.0422,-183.675,-123.274,-49.1742
55.408,-11.1056,-9.40301,21.7111,-163.52,-123.087,-31.7359
55.413,-11.2921,-8.37112,22.3397,-141.925,-120.208,-14.9776
55.417,-11.34,-7.39517,22.8703,-119.327,-114.86,0.0897148
55.423,-11.3038,-6.3575,23.1672,-95.8666,-107.343,12.9918
55.427,-11.1374,-5.33196,23.2633,-71.3905,-98.3412,23.3714
55.433,-10.9415,-4.73187,23.1951,-45.3088,-89.272,32.1491
55.437,-10.8472,-4.59518,22.4383,-18.8238,-78.5809,39.7476
55.443,-10.7559,-4.84875,21.136,5.89204,-62.6509,44.7759
55.447,-10.372,-5.35341,19.9396,27.3182,-41.7919,47.7315
55.452,-9.95791,-8.56542,19.6123,44.4263,-18.3235,51.0497
55.458,-9.4791,-14.0774,19.1256,58.1437,3.19832,66.4624
55.462,-4.88931,-9.41869,17.0304,78.0341,21.9449,67.0112
55.468,-2.04656,-7.45285,13.8921,93.5382,49.3205,61.7385
55.472,-1.17671,-9.75403,5.32098,92.9583,77.5496,55.0034
55.478,2.80294,-13.7555,-6.12168,65.8744,79.0706,39.9804
55.482,11.6379,-17.5146,-11.9247,32.4827,46.1729,31.1463
55.488,20.0164,-17.7187,-10.7552,25.3241,2.59592,37.4828
55.493,22.7971,-13.6181,-8.38603,48.3778,-13.9953,46.1844
55.498,18.8209,-7.38818,-4.4761,72.1351,12.637,39.0715
55.503,11.8411,-3.94606,1.54967,71.1036,56.1726,16.317
55.507,7.46297,-4.67338,6.51139,60.0703,89.1655,-3.27592
55.512,6.53237,-7.8205,9.71704,57.9765,107.857,-9.63919
55.517,6.96085,-11.2498,11.745,65.3948,117.448,-4.15334
55.522,6.52996,-13.2111,12.6979,75.7905,121.501,8.59679
55.527,4.54042,-13.1772,12.7523,82.4466,116.486,24.3727
55.532,1.61585,-12.2284,11.443,82.2712,105.519,40.0173
55.537,-1.13402,-11.2767,9.4152,76.6772,100.474,49.8366
55.542,-1.99053,-10.6149,8.03391,70.6006,101.558,52.7005
55.547,-1.11732,-10.0879,6.81058,65.9589,103.551,49.4592
55.551,-0.437814,-9.34941,5.62698,62.5842,104.093,44.225
55.556,0.241614,-8.80028,4.60603,60.6973,102.504,41.3858
55.561,0.534234,-8.69387,3.94157,60.4356,99.8208,42.7484
55.566,0.369155,-8.66301,2.53429,58.674,96.5299,45.1451
55.571,0.0158475,-8.86013,0.866377,54.4629,96.5568,44.8764
55.576,-0.74481,-9.32319,0.0880365,49.7329,102.946,41.0561
55.581,-1.87076,-9.54665,0.284107,45.6472,111.471,35.4152
55.586,-1.73091,-9.7559,1.02987,43.1044,117.131,29.0218
55.59,-1.84618,-9.47879,2.77972,43.5331,120.555,22.9066
55.595,-2.74502,-8.89741,4.63408,45.3048,118.475,19.8765
55.6,-3.21137,-8.58768,5.24821,45.6317,107.962,20.4154
55.605,-3.02856,-8.59737,5.1164,47.0151,93.9176,24.2076
55.61,-2.54919,-8.94846,5.12244,50.5185,78.1932,30.3846
55.615,-1.7884,-9.32853,4.72145,54.1892,62.3958,37.1472
55.62,-1.19588,-9.41408,4.33332,56.8408,51.4276,42.3275
55.624,-1.1772,-9.42672,4.41777,58.78,45.6871,45.3148
55.629,-1.19844,-9.37082,4.36889,59.1353,40.8543,46.4757
55.634,-0.95089,-9.18367,4.46223,58.2403,36.5809,46.7022
55.639,-0.795678,-8.80341,5.02684,57.8773,31.7105,47.3067
55.644,-0.697003,-8.38052,5.57747,57.0709,25.2854,48.4551
55.649,-0.601345,-8.25286,6.15413,56.1623,19.0733,50.1427
55.654,-0.270963,-8.52976,6.2534,55.089,12.7612,52.1703
55.659,0.186077,-8.7131,5.40104,52.9706,7.34791,54.7228
55.663,0.677047,-8.75623,4.10767,49.2169,6.19021,56.0585
55.668,0.889377,-8.55867,3.64524,44.8814,7.78312,54.9192
55.673,0.836654,-8.46051,4.06392,42.467,9.16835,53.3896
55.678,0.803041,-8.53983,4.38117,41.3374,9.79808,52.8302
55.683,0.83449,-8.7194,4.26446,40.0244,10.351,52.8606
55.688,0.916237,-8.95403,3.70617,37.2811,11.0082,52.4477
55.693,0.901821,-8.9029,3.11657,33.6461,14.3957,50.2693
55.698,0.450809,-8.81295,3.00702,31.2161,19.8822,46.8817
55.702,-0.233599,-8.91026,3.28133,30.395,24.1057,43.5515
55.708,-0.769765,-9.01679,3.39432,30.0347,25.8307,40.8603
55.712,-1.02825,-9.06471,3.42178,29.4142,25.4486,38.4199
55.718,-1.12517,-8.99821,3.53713,28.9396,23.8297,36.344
55.722,-1.12452,-8.95226,3.63352,29.1011,21.1264,34.8927
55.728,-1.2524,-8.83376,3.58147,29.9895,18.1611,34.4288
55.732,-1.34114,-8.89379,3.36172,31.4809,15.1907,34.6064
55.738,-1.25826,-9.02422,3.1296,32.752,11.2538,35.0064
55.743,-1.0484,-9.04374,2.95038,33.7672,7.60285,34.72
55.748,-0.930562,-9.00549,3.00585,34.5332,5.82806,34.0321
55.753,-0.679227,-8.93379,3.30439,35.0665,4.54868,33.8923
55.757,-0.48632,-8.72899,3.5149,35.095,2.91397,33.8524
55.763,-0.427793,-8.60049,3.71435,35.1729,2.27242,34.4247
55.767,-0.270742,-8.56184,3.84054,34.4696,2.79481,34.7416
55.773,-0.102265,-8.54553,3.85732,33.0523,3.78428,34.4554
55.777,0.120185,-8.578,3.94698,31.5663,5.84637,33.8707
55.783,0.173523,-8.87029,4.01669,30.021,8.57741,32.5339
55.788,-0.00403473,-9.01677,3.95634,29.2829,10.2482,31.0569
55.792,0.185532,-9.0296,3.75979,28.8466,12.5964,29.6736
55.798,0.247626,-9.06993,3.6172,28.0186,16.4717,28.0896
55.802,0.00773906,-9.11711,3.598,27.482,19.7107,26.2733
55.808,-0.292554,-9.10606,3.67071,27.4682,22.551,24.2643
55.812,-0.545869,-9.01217,3.84215,26.9374,24.3536,22.4774
55.818,-0.723978,-8.86557,3.87034,25.8519,25.0129,21.2029
55.822,-0.898293,-8.73038,3.85659,25.3229,25.2318,20.7261
55.827,-0.802429,-8.89565,3.83809,25.4336,25.3484,20.321
55.833,-0.738921,-8.79885,3.80103,25.3848,26.3954,19.0275
55.837,-0.884157,-8.59588,3.77144,24.7861,28.1641,17.7456
55.843,-1.0444,-8.49159,3.92656,24.2878,29.042,16.8968
55.847,-1.03446,-8.42779,4.18577,24.4189,28.8611,17.0276
55.853,-1.03716,-8.38834,4.27433,24.4999,27.8415,17.501
55.857,-0.883348,-8.47919,4.28946,24.481,27.1339,17.9082
55.863,-0.809296,-8.6479,4.2568,24.1643,26.8323,17.8085
55.868,-0.865479,-8.71781,4.30359,23.2451,26.5865,17.1373
55.873,-1.07316,-8.43543,4.28775,22.5591,26.2534,17.2218
55.878,-0.975718,-8.53448,4.45975,21.8772,24.4357,18.0111
55.882,-0.98411,-8.59068,4.60942,21.527,23.2237,18.6792
55.888,-1.08021,-8.44513,4.65899,20.9368,22.7538,18.6494
55.892,-0.875241,-8.58925,4.71678,20.27,21.8697,18.9208
55.898,-1.09252,-8.66194,4.88763,20.2851,20.2351,19.5209
55.902,-1.14246,-8.65952,4.96561,20.3023,18.3768,20.9768
55.907,-1.21202,-8.56594,4.8184,19.5523,16.4744,22.2013
55.912,-1.15313,-8.66361,4.83885,18.9973,14.651,22.9408
55.917,-1.13606,-8.72634,4.81318,18.4989,12.9608,23.2101
55.922,-1.21601,-8.54095,4.78771,17.3421,11.9747,23.2907
55.927,-1.33763,-8.39553,4.79562,16.5557,10.5936,23.7634
55.932,-1.37438,-8.28413,4.89488,16.3483,9.15217,24.5975
55.937,-1.41125,-8.34877,5.02567,16.298,7.00409,25.4641
55.941,-1.46875,-8.35843,4.81524,16.1901,5.1999,26.2945
55.946,-1.32377,-8.3582,4.66801,15.6202,3.75232,27.0279
55.951,-1.29558,-8.40025,4.40959,15.4014,3.03955,27.5997
55.956,-1.34345,-8.4552,4.39946,15.3748,2.1546,28.0824
55.961,-1.28608,-8.56297,4.42307,15.5689,1.07861,29.0763
55.966,-1.36392,-8.57914,4.38489,16.2269,-0.0496848,30.5863
55.971,-1.26025,-8.62996,4.49672,17.0961,-1.90123,32.194
55.976,-1.22872,-8.70005,4.55586,18.3099,-3.62203,34.2921
55.981,-1.07031,-8.6739,4.43997,19.6862,-4.71264,36.3586
55.985,-0.916933,-8.67213,4.36691,20.7383,-4.97283,37.8766
55.99,-0.76485,-8.83697,4.23904,22.3074,-3.56604,38.8757
55.995,-0.632703,-9.00093,4.11897,23.887,-1.10121,39.1063
56,-0.671786,-9.09506,3.83586,25.063,2.83784,38.9615
56.005,-0.783583,-9.32243,3.75863,26.0966,6.42769,39.0175
56.01,-0.751489,-9.43595,3.82419,27.8202,8.866,39.6936
56.015,-0.693958,-9.49181,3.97754,29.933,10.9368,40.5816
56.02,-0.610958,-9.65823,4.20269,32.1971,13.1076,41.7698
56.024,-0.76043,-9.70619,4.48508,34.9527,14.7487,42.7005
56.029,-0.619953,-9.80709,4.49081,37.3911,15.936,43.3221
56.034,-0.401827,-10.2826,4.84359,40.1664,17.7567,44.2824
56.039,-0.56762,-10.4476,5.18589,43.3971,19.8756,45.3976
56.044,-0.736917,-10.3213,5.23305,46.008,21.0177,47.0647
56.049,-0.432291,-10.7943,5.29482,48.0296,21.842,48.9116
56.054,-0.381507,-10.8124,5.20313,50.3373,24.2477,50.409
56.059,-0.3605,-10.9363,5.10041,51.8697,26.3809,51.6807
56.063,-0.384659,-11.1076,5.28768,53.8423,28.5082,53.3283
56.068,-0.460209,-10.9755,5.64419,56.4278,30.2775,55.2335
56.073,-0.491482,-10.887,5.76,57.7086,31.3133,56.663
56.078,-0.632324,-10.9284,5.79904,59.1047,31.7118,58.2348
56.083,-0.693267,-10.8617,5.51225,60.8375,31.757,59.2084
56.088,-0.75795,-11.0519,5.50406,63.3107,31.5401,60.5294
56.093,-1.25412,-10.92,5.83305,67.2569,31.5573,63.4879
56.097,-1.4467,-10.6672,5.72981,69.4355,29.7361,66.1884
56.103,-1.26919,-10.6997,5.55174,70.8354,27.3406,68.9891
56.107,-1.2586,-10.9038,5.54923,73.131,25.8664,72.0237
56.113,-1.19835,-10.951,5.79673,75.9401,25.1278,75.1621
56.118,-1.17599,-10.9508,5.98908,78.1923,23.998,77.5209
56.123,-1.15057,-10.7703,6.12159,79.806,22.4393,79.499
56.128,-1.00879,-11.0289,6.22512,82.4445,20.0613,82.7625
56.132,-0.604376,-11.4785,6.28625,85.3371,17.5171,84.9718
56.138,-0.31552,-11.8209,6.47512,87.9142,15.9271,85.7419
56.142,-0.130027,-12.1596,6.67008,90.9738,14.8914,86.4817
56.148,-0.0387653,-12.5406,6.8292,94.2367,13.7389,88.0527
56.152,-0.0913785,-12.7658,7.02638,97.6475,11.227,90.9827
56.158,0.0915628,-13.076,6.97046,101.454,6.48757,95.4762
56.163,0.368384,-13.4729,6.8055,105.16,0.953141,100.707
56.167,0.581201,-13.8925,6.97954,109.821,-4.53151,106.644
56.173,1.07724,-14.3579,6.94715,115.022,-10.913,113.39
56.177,1.76467,-14.9919,6.79365,119.203,-17.1751,120.215
56.183,2.47902,-15.4685,6.87317,124.211,-23.0591,126.334
56.187,3.08051,-15.9028,7.10658,130.593,-30.4417,133.216
56.193,3.64967,-16.2726,7.41466,137.78,-39.9181,140.441
56.197,4.34727,-16.628,7.80808,145.362,-51.0959,148.048
56.202,4.90615,-16.7873,8.21871,152.656,-63.2249,156.452
56.208,5.33277,-16.5234,8.7077,160.064,-75.2567,165.585
56.212,5.92151,-16.1568,8.76981,166.687,-85.1652,174.941
56.218,6.39421,-15.8271,7.96341,170.616,-89.3437,183.133
56.222,6.33648,-15.3083,6.64507,171.996,-85.5033,189.14
56.228,5.37623,-14.9079,5.26988,170.452,-72.1401,192.51
56.232,4.26327,-15.335,4.35801,167.41,-50.9513,192.657
56.238,3.4147,-16.1445,4.05346,163.246,-26.267,189.31
56.243,2.60077,-16.4472,3.97927,156.739,-0.120138,181.764
56.248,2.06548,-15.9966,4.33655,149.74,26.3709,171.571
56.253,1.53889,-14.924,5.0918,142.327,49.9247,162.23
56.257,0.2547,-13.2469,6.30696,135.735,65.2926,155.098
56.263,-0.553764,-11.2933,6.64133,128.116,70.2403,148.336
56.267,-0.13581,-9.91514,5.86914,117.984,68.8712,141.423
56.273,0.109967,-8.64881,5.09932,108.725,65.0673,134.995
56.277,-0.104724,-8.00798,4.90693,101.375,59.523,130.196
56.283,-0.592648,-8.09465,5.16437,97.2155,50.8928,125.279
56.288,-0.61376,-8.60901,5.01053,97.0331,36.2505,121.245
56.292,0.170515,-9.06402,4.20761,97.0687,18.598,119.235
56.298,0.991381,-9.15767,3.25098,94.2047,3.58693,121.506
56.302,1.32782,-8.93385,2.5262,88.4162,-3.22441,125.035
56.307,0.767018,-8.02574,2.4425,80.3365,-1.30459,123.887
56.312,0.055109,-6.006,2.68658,69.9519,2.7276,115.186
56.317,-1.78581,-3.71723,3.19191,57.9761,5.87471,104.095
56.322,-3.94881,-1.63325,3.56256,44.9553,10.0378,91.0439
56.327,-3.78505,-1.60044,3.41253,31.9981,5.62009,87.5299
56.332,-3.53043,-3.77442,3.68829,23.5795,-1.86524,94.3857
56.336,-3.33634,-5.06838,5.35543,18.3426,-8.58695,91.8204
56.341,-3.81537,-2.351,4.61482,15.4456,-37.366,66.4331
56.346,-5.17179,0.301428,2.71099,-2.67935,-64.2286,53.2629
56.351,-3.98888,-0.0764425,2.32346,-25.9903,-80.0759,52.8626
56.356,-1.53238,-1.27657,1.73678,-40.852,-94.0402,42.954
56.361,0.621575,-2.68456,0.971549,-50.8443,-100.007,34.526
56.366,2.17291,-3.68196,0.613838,-58.3328,-100.462,27.3661
56.371,3.08651,-3.87517,0.47002,-66.3377,-98.9628,17.9888
56.375,3.60357,-3.39487,0.571253,-74.4527,-97.1051,7.76525
56.38,3.60644,-2.96049,0.728834,-82.3989,-95.7467,-1.2963
56.385,3.46178,-2.67413,0.755882,-90.8682,-94.5687,-9.79883
56.39,3.3809,-2.53829,0.745467,-99.6139,-94.591,-17.7475
56.395,3.38863,-2.45984,0.768004,-107.815,-96.1631,-24.2005
56.4,3.27137,-2.46806,0.787001,-115.12,-98.1229,-29.8952
56.405,3.03672,-2.6072,0.83874,-122.693,-98.2847,-35.8812
56.41,2.96558,-2.76779,1.08121,-130.156,-97.0713,-42.8666
56.415,2.93563,-2.88242,1.32363,-136.607,-96.4585,-50.2724
56.419,2.73774,-3.03145,1.441,-142.719,-97.3082,-58.2182
56.424,2.52597,-3.26593,1.50329,-149.555,-99.3271,-65.6316
56.429,2.22655,-3.49352,1.77021,-156.3,-104.098,-70.6215
56.434,1.90549,-3.6927,2.06681,-160.993,-110.513,-74.5317
56.439,1.74804,-4.03511,2.24492,-164.556,-115.315,-78.2845
56.444,1.4879,-4.34788,2.43958,-167.89,-119.498,-81.1534
56.449,1.39666,-4.38728,2.58158,-171.636,-126.673,-84.7293
56.454,1.36526,-4.37199,2.6878,-176.793,-135.129,-89.2891
56.458,1.39011,-4.44711,2.74224,-182.452,-143.383,-92.9807
56.463,1.45816,-4.62426,2.82457,-187.746,-151.326,-96.1521
56.468,1.39074,-4.90701,3.05526,-192.389,-159.062,-97.983
56.473,1.32278,-5.26918,3.2348,-196.424,-166.827,-98.7822
56.478,1.30394,-5.61403,3.35553,-200.393,-174.028,-99.7782
56.483,1.30498,-6.06654,3.50411,-204.573,-180.454,-100.802
56.488,1.35024,-6.35928,3.80022,-208.696,-185.915,-102.314
56.493,1.22189,-6.55648,4.03601,-213.341,-190.398,-104
56.498,1.20718,-6.84909,4.20249,-217.9,-195.722,-104.543
56.503,1.34564,-7.20506,4.35577,-221.655,-200.944,-104.47
56.507,1.48289,-7.42187,4.74288,-225.434,-203.552,-105.655
56.513,1.77338,-7.90126,4.73403,-230.359,-206.461,-106.136
56.517,2.30305,-8.75592,4.50277,-235.636,-209.678,-107.032
56.523,2.71427,-9.15656,4.6874,-240.885,-212.167,-110.111
56.527,2.69073,-9.27102,5.25198,-246.094,-216.236,-112.31
56.533,2.723,-9.53546,5.74106,-249.262,-219.98,-112.404
56.538,2.71905,-10.059,6.16727,-251.742,-221.421,-111.455
56.542,2.61003,-10.6501,6.66807,-253.992,-222.723,-109.861
56.548,2.74806,-11.319,7.32066,-253.322,-229.19,-107.034
56.552,3.09441,-11.6811,7.82917,-251.23,-236.926,-104.625
56.558,3.21365,-11.8847,8.25702,-253.077,-240.841,-103.802
56.562,3.03749,-12.4987,8.56544,-256.72,-243.719,-101.91
56.568,2.75726,-13.1829,8.68666,-259.678,-245.225,-98.3521
56.572,2.37207,-13.8654,8.88654,-263.118,-245.82,-94.3322
56.577,1.84118,-14.7059,9.37343,-266.924,-245.841,-90.0354
56.583,0.985458,-15.4633,10.1738,-269.525,-243.811,-86.2719
56.587,-0.140279,-15.792,11.3881,-271.48,-239.818,-83.4036
56.593,-1.61579,-15.6792,12.9111,-273.808,-235.579,-80.3918
56.597,-2.93793,-15.5594,14.1605,-276.06,-233.543,-75.8878
56.603,-3.90041,-15.6907,14.7871,-278.55,-231.038,-71.2953
56.607,-4.5891,-15.7518,15.4286,-280.622,-225.776,-68.1214
56.613,-4.95764,-15.7139,16.0179,-280.397,-220.766,-65.9466
56.618,-4.83205,-15.4769,16.5527,-277.189,-218.142,-63.5977
56.623,-4.26424,-15.1078,17.0903,-271.261,-216.503,-59.585
56.628,-3.34315,-14.5358,17.5838,-262.794,-214.209,-53.2837
56.632,-2.91875,-13.8193,18.0329,-252.451,-210.433,-45.1328
56.638,-2.78546,-12.8389,18.5846,-240.77,-204.963,-37.2049
56.642,-3.05952,-11.5895,19.0765,-227.449,-198.837,-30.1854
56.648,-3.79394,-10.2972,19.4053,-213.264,-190.442,-25.1909
56.652,-4.9155,-9.41531,19.7446,-197.031,-180.848,-21.0209
56.658,-6.23406,-9.10265,20.5107,-177.921,-170.429,-16.3424
56.663,-7.76073,-8.97679,21.8194,-156.704,-160.433,-9.97822
56.667,-9.22793,-8.51382,23.5234,-133.824,-153.144,-0.481682
56.673,-10.2853,-7.43521,25.2098,-109.57,-150.021,11.5006
56.677,-10.7711,-6.16511,26.282,-83.737,-150.455,25.153
56.683,-10.2845,-5.19717,25.7028,-57.0568,-148.715,38.7706
56.687,-9.78767,-4.36821,23.3659,-33.206,-135.324,48.0998
56.693,-9.30438,-4.09234,21.3931,-11.9474,-111.313,51.5405
56.697,-8.94052,-4.61991,20.1715,9.9563,-84.3832,53.073
56.702,-8.78455,-5.61368,19.3897,32.2772,-57.3627,54.9112
56.707,-8.61599,-6.48274,19.1495,53.4112,-32.1926,56.1776
56.712,-9.00712,-11.4112,19.2555,69.7796,-11.3182,64.4226
56.717,-6.03999,-14.5307,17.5992,85.6039,2.55284,84.369
56.722,0.672495,-10.088,13.4757,101.617,13.6761,81.5083
56.727,2.89969,-9.15838,8.41338,104.571,38.4538,70.3313
56.732,2.49219,-10.9034,0.515086,90.4158,62.8333,55.1393
56.736,5.73902,-12.984,-6.87364,60.9757,64.7127,38.1045
56.741,15.2837,-16.0967,-9.80861,42.1342,53.1914,30.865
56.746,23.34,-15.6636,-10.2055,43.1725,40.9365,28.0254
56.751,26.2513,-11.4346,-9.18165,53.2829,52.0199,15.9368
56.756,24.5757,-7.63594,-6.37449,56.409,90.2201,-8.02727
56.761,17.8772,-5.18619,-0.0812722,45.7894,130.79,-35.5235
56.766,11.4838,-5.57327,5.98088,36.1931,154.316,-49.688
56.77,8.61978,-8.40692,9.17594,37.9637,163.281,-45.2174
56.775,7.25109,-11.6226,10.5118,46.6357,170.492,-33.2605
56.78,4.80159,-12.7338,11.9396,55.2559,179.86,-22.6562
56.785,1.71332,-12.5167,12.4013,63.1571,180.073,-8.86898
56.79,-0.902704,-11.9908,11.7285,66.8968,168.175,6.31635
56.795,-2.92095,-11.478,11.3726,65.1425,153.924,18.3784
56.8,-3.31252,-10.9473,10.7293,62.4058,141.75,25.8957
56.805,-2.37112,-10.6137,9.44936,59.5597,133.929,28.4391
56.809,-0.973773,-9.80908,7.76282,57.1533,126.323,29.7578
56.814,0.302197,-9.10511,5.87776,56.8515,118.877,33.8858
56.819,1.05995,-8.768,3.55795,57.06,110.555,38.9675
56.824,0.903347,-8.4264,1.21342,54.3944,104.126,41.8872
56.829,-0.0370565,-8.21508,-0.212946,50.2538,101.869,41.8356
56.834,-1.56758,-8.28133,-0.497764,47.1211,103.318,39.889
56.839,-2.94697,-8.36658,0.105443,46.1853,105.661,37.6047
56.844,-3.24542,-8.70705,1.44637,46.8562,105.501,34.0914
56.848,-3.33217,-8.79131,3.28689,48.5181,100.325,30.5358
56.853,-3.50745,-8.70659,4.17626,51.285,90.1122,30.1539
56.858,-3.41987,-8.94269,4.64455,52.8319,76.9171,31.5686
56.863,-2.67606,-9.32407,4.62968,53.9569,62.7021,34.0456
56.868,-1.85318,-9.40525,4.32953,55.8662,51.3851,37.2953
56.873,-1.27767,-9.42135,4.18405,57.6387,43.6241,39.5635
56.878,-0.941896,-9.35275,3.81058,57.7842,39.7683,40.9759
56.883,-0.743179,-9.26236,3.29626,56.317,40.5992,40.8052
56.888,-0.644912,-9.19842,3.06945,53.2997,44.8643,38.6803
56.892,-0.850895,-9.13153,3.61191,50.4336,50.1817,35.0973
56.898,-0.954851,-9.18526,4.75222,49.1322,50.0728,32.8348
56.902,-0.891994,-9.23536,5.75946,49.4365,42.6839,33.5586
56.908,-0.600184,-9.07285,5.90401,49.4634,33.0912,36.5238
56.913,-0.366912,-8.78661,5.53197,47.9444,25.1253,39.7007
56.917,-0.29593,-8.48162,5.27256,46.666,19.7164,42.3
56.923,-0.029922,-8.56729,5.19138,45.9014,16.9818,44.182
56.927,0.378885,-8.78753,5.00223,44.3516,15.3305,44.5339
56.933,0.495984,-8.97288,4.51685,42.1675,14.1826,43.8828
56.937,0.304881,-9.01704,4.32783,39.7626,13.2255,42.7206
56.943,-0.0591317,-8.76481,4.32195,38.1296,11.5588,42.3373
56.947,-0.304768,-8.69271,4.145,37.1084,10.2672,42.7992
56.952,-0.377273,-8.9226,3.86851,35.8159,9.58663,42.4985
56.958,-0.299362,-8.98677,3.56319,34.3169,9.24888,41.2563
56.962,-0.469803,-8.9647,3.28414,32.7602,9.20446,39.9081
56.968,-0.905318,-8.8861,3.20369,32.2401,8.86769,38.768
56.972,-1.18962,-8.9671,3.41014,33.3923,7.10352,38.3909
56.978,-1.168,-9.08342,3.708,34.4809,3.56475,38.1293
56.982,-0.890916,-9.13228,3.47448,34.409,-0.683449,37.9075
56.987,-0.630171,-9.02594,3.06973,33.2542,-3.81581,37.0398
56.993,-0.729364,-8.83387,2.9767,31.0805,-4.89247,34.6834
56.998,-1.06902,-8.80819,3.32358,29.1043,-4.80428,32.1738
57.003,-1.19173,-8.72662,3.80063,28.5013,-5.10572,30.3683
57.007,-1.22235,-8.69089,4.05944,27.7369,-5.83473,28.8739
57.013,-1.11776,-8.71621,4.06485,26.7384,-6.95129,27.8752
57.017,-0.834248,-8.68623,4.02101,25.6379,-8.48418,27.7127
57.023,-0.707994,-8.49028,4.0917,24.6926,-10.1429,27.9609
57.027,-0.685608,-8.40741,4.15702,24.4388,-12.0196,28.9513
57.033,-0.519988,-8.55176,4.20257,24.5946,-13.3027,30.0957
57.038,-0.247231,-8.74332,4.0978,24.8159,-14.0722,30.9736
57.042,-0.156905,-8.87236,3.93162,24.7941,-14.9803,31.8464
57.048,-0.168082,-8.91858,3.65548,24.9199,-16.1917,33.2055
57.052,-0.246163,-8.92915,3.5337,25.1643,-17.0583,34.1538
57.058,-0.35635,-8.9302,3.5935,25.5128,-17.7828,35.0519
57.062,-0.398198,-8.92858,3.65109,25.7836,-17.1857,35.1506
57.068,-0.47064,-8.97952,3.61302,25.5599,-15.9366,34.5112
57.072,-0.518229,-9.12965,3.53806,25.1111,-14.3214,33.18
57.077,-0.469199,-9.27518,3.32122,25.0676,-12.6174,32.0496
57.083,-0.464095,-9.33638,3.13541,24.6425,-10.3684,30.6316
57.087,-0.675504,-9.28157,3.28901,24.856,-9.05388,29.3028
57.092,-0.78851,-9.12012,3.54059,25.3672,-8.77459,28.778
57.097,-0.758362,-9.10301,3.70384,25.9179,-8.08545,28.3821
57.102,-0.822203,-9.13666,3.70342,25.4195,-7.20747,27.5332
57.107,-0.998668,-8.9801,3.66998,24.7936,-7.05467,26.8914
57.112,-0.859219,-8.85138,3.73501,24.6131,-7.56026,27.3125
57.117,-0.666093,-8.80308,3.88754,24.8164,-7.57582,28.2831
57.122,-0.602516,-8.64496,3.84362,25.0223,-6.76144,28.491
57.127,-0.594696,-8.64936,3.93469,25.1812,-5.22515,28.1215
57.131,-0.555413,-8.80927,4.00041,25.5943,-3.64952,27.7225
57.136,-0.5485,-8.9367,4.0385,25.4915,-2.27929,27.5279
57.141,-0.56765,-9.01289,4.03949,25.4364,-1.52953,28.0505
57.146,-0.60402,-9.05419,4.02777,26.0594,-1.25357,28.861
57.151,-0.652682,-8.87991,3.96001,26.2924,-0.762151,29.2499
57.156,-0.642526,-8.8686,3.91408,26.4174,0.442452,29.2814
57.161,-0.622041,-8.94222,4.02188,26.656,1.64155,29.9033
57.166,-0.813569,-8.89501,3.9507,26.7796,2.89921,30.7496
57.17,-1.0267,-8.78211,3.81096,26.2686,3.30005,31.0473
57.175,-1.025,-8.79479,4.0755,26.6245,3.33168,31.5029
57.18,-1.17438,-8.66941,4.11482,27.0635,3.37862,32.6938
57.185,-1.28535,-8.64151,3.99872,26.6783,3.19749,34.0536
57.19,-1.12282,-8.61647,3.9464,26.3513,2.82458,35.6591
57.195,-1.01188,-8.77519,4.00679,26.1013,2.91662,37.0334
57.2,-0.838306,-8.42747,4.06336,26.2864,3.60433,38.0267
57.204,-0.846684,-8.50375,4.12715,26.0283,4.72698,38.8127
57.209,-0.822646,-8.53507,4.29212,26.3217,6.06158,39.7091
57.214,-0.646957,-8.73739,4.28764,26.7383,7.61648,40.4452
57.219,-0.74418,-8.84946,4.2815,26.8594,9.35374,41.53
57.224,-0.799679,-8.94415,4.56815,27.2025,10.7962,42.2414
57.229,-1.02571,-8.63881,4.57338,28.1115,11.9735,42.9296
57.234,-1.11912,-8.58086,4.35167,27.4703,12.7074,43.306
57.239,-1.14674,-8.74924,4.39452,27.6221,14.4744,44.3158
57.243,-1.11984,-8.61468,4.3302,28.149,16.0952,44.5769
57.248,-1.01237,-8.97726,4.53445,28.684,17.3148,45.1292
57.253,-1.11319,-9.09671,4.84343,30.2795,18.9265,45.8726
57.258,-1.18932,-9.1203,4.86924,31.0849,19.7565,45.5867
57.263,-1.23451,-9.24404,4.87973,31.6632,20.2242,45.5115
57.268,-1.27719,-9.37485,5.02093,32.8016,20.6042,45.9778
57.273,-1.30627,-9.49602,5.05462,34.0449,20.6489,46.9002
57.278,-1.49969,-9.37968,5.02952,35.5089,21.0814,47.9672
57.283,-1.52496,-9.40025,4.78503,36.2462,21.1974,48.4133
57.288,-1.60377,-9.77425,4.8853,37.7274,21.4038,48.9509
57.292,-1.77191,-9.8244,4.79681,39.7096,20.8822,49.8018
57.298,-1.73405,-10.0267,4.70494,41.3773,19.8352,51.4088
57.302,-1.77929,-10.0836,4.5665,43.5594,18.996,53.5562
57.308,-1.61708,-10.1131,4.23143,45.4126,18.4317,55.1319
57.312,-1.34545,-10.3418,4.27508,47.3519,18.7633,56.7501
57.318,-1.43205,-10.2615,4.49752,50.394,19.4683,58.5195
57.322,-1.45936,-10.1819,4.72445,52.9364,19.5389,59.6848
57.327,-1.36705,-10.5187,5.01056,55.6926,19.3427,61.5764
57.333,-1.26904,-10.7841,5.14426,58.7604,19.7778,64.3417
57.337,-1.12031,-10.9848,5.11777,60.8775,20.4145,66.0043
57.343,-1.15278,-11.2405,5.29937,63.1674,20.7501,67.6182
57.347,-1.18273,-11.2817,5.60985,65.7549,20.6797,69.7391
57.353,-1.18595,-11.4177,5.90535,68.3246,20.1047,72.5465
57.357,-1.14001,-11.5083,6.23888,71.0752,18.8273,75.5966
57.362,-0.958992,-11.5864,6.44556,74.2409,16.6566,78.7602
57.368,-0.647643,-11.7473,6.59465,77.3674,14.7053,81.4984
57.372,-0.378713,-11.966,6.8361,80.8666,13.239,83.9353
57.378,-0.00245938,-12.0692,7.02674,84.234,12.3301,85.5956
57.382,0.256115,-12.2323,7.22362,87.928,11.5215,87.1808
57.388,0.457137,-12.4021,7.48009,91.7117,10.602,89.0069
57.392,0.606522,-12.5047,7.73812,95.3687,9.05879,91.1799
57.398,0.924998,-12.6252,7.82435,99.0842,6.84608,94.1046
57.402,1.1746,-12.8731,7.8904,102.386,4.42081,97.7196
57.408,1.54521,-13.1135,8.17644,105.923,1.22578,101.573
57.413,2.09291,-13.6153,8.45072,110.123,-3.07281,106.65
57.417,2.60544,-14.2815,8.55988,115.046,-8.54574,111.458
57.423,2.97915,-14.8875,8.83097,120.619,-15.2047,116.111
57.427,3.33099,-15.5583,9.09482,127.269,-24.1641,121.683
57.433,3.86529,-16.0287,9.32541,134.414,-35.8667,128.606
57.437,4.20055,-15.9939,9.49554,141.322,-49.8932,137.59
57.443,4.57844,-15.9631,9.46331,148.148,-64.7353,147.807
57.447,5.1475,-16.1061,8.94538,155.016,-78.61,158.92
57.452,5.63038,-16.051,7.83181,160.352,-88.713,169.809
57.458,5.77445,-15.866,6.20262,161.465,-90.679,178.272
57.462,5.45642,-15.7937,4.18818,160.278,-83.1006,184.562
57.468,4.42372,-15.7446,2.90927,158.855,-66.6902,188.492
57.472,2.70463,-15.6754,2.19199,155.166,-39.9793,188.526
57.478,1.55684,-16.5498,2.25386,150.364,-7.35516,183.843
57.482,0.912376,-17.4216,3.38343,145.633,23.1206,174.267
57.487,-0.287203,-16.8822,4.88019,139.619,46.8657,164.73
57.492,-1.3439,-15.5565,5.89329,133.832,62.5355,157.748
57.497,-1.60192,-14.2738,6.09312,128.448,69.5548,154.059
57.502,-1.68661,-13.0826,5.8522,120.983,71.4372,150.962
57.507,-1.53116,-11.5455,5.58519,113.637,70.7362,146.593
57.512,-1.22311,-10.3476,5.14102,106.448,68.4968,142.275
57.517,-1.10715,-9.29233,5.22822,101.797,63.1164,136.707
57.521,-1.04266,-8.89231,5.27656,100.171,53.2401,131.884
57.526,-0.555321,-9.21344,5.00549,101.085,38.1112,127.558
57.531,0.0518035,-9.44544,4.51852,101.001,19.6555,124.585
57.536,0.656888,-9.29051,3.8762,97.6529,-0.653829,125.852
57.541,1.61657,-8.9542,3.14259,92.0454,-20.0588,132.71
57.546,1.84768,-7.95765,2.83663,86.1676,-33.5271,140.22
57.551,0.989724,-6.37886,2.86987,78.6257,-38.7767,141.716
57.556,-0.49147,-4.68297,2.92103,68.3634,-38.3651,137.938
57.561,-2.41319,-3.08627,3.20507,56.8339,-32.866,130.791
57.565,-3.8838,-2.16862,3.20179,43.9767,-25.4349,121.979
57.57,-3.53965,-2.28825,2.38314,31.4576,-23.8694,115.452
57.575,-2.79251,-3.1196,2.56943,21.2151,-28.6191,112.915
57.58,-3.62198,-2.99077,4.35864,14.4887,-35.6926,104.638
57.585,-4.43927,-1.0273,5.07514,5.57841,-54.4819,87.7016
57.59,-5.13555,0.0339195,4.41618,-11.1533,-76.5177,80.8347
57.595,-4.18714,-0.680813,4.11514,-27.3217,-90.5951,82.2141
57.6,-2.41028,-1.42505,3.33408,-38.4352,-108.003,75.0044
57.604,-0.417218,-1.9873,1.98469,-49.2515,-122.654,64.1917
57.609,1.47992,-2.2305,1.06537,-59.2261,-129.118,56.765
57.614,2.72763,-2.2514,0.849516,-67.3033,-129.791,49.925
57.619,3.29862,-2.17754,1.17033,-75.4274,-127.801,41.6858
57.624,3.45219,-2.12112,1.43851,-84.1915,-125.131,33.0084
57.629,3.67358,-2.1042,1.55508,-93.2659,-121.63,23.1427
57.634,4.10024,-2.14508,1.49098,-102.573,-118.045,11.776
57.638,4.34169,-2.19744,1.27269,-111.787,-115.63,0.778273
57.643,4.36419,-2.36445,1.18457,-120.67,-113.934,-7.19171
57.648,4.36361,-2.57196,1.28922,-128.517,-111.541,-13.2712
57.653,4.34392,-2.77822,1.46837,-135.279,-108.125,-19.9914
57.658,4.23004,-2.95346,1.67979,-142.726,-104.567,-27.8793
57.663,3.982,-3.04236,1.97974,-150.515,-102.35,-36.3378
57.668,3.76651,-3.13063,2.14517,-158.036,-102.46,-44.0693
57.673,3.60247,-3.43681,2.22582,-164.398,-105.836,-49.5925
57.677,3.50209,-3.84393,2.30419,-169.267,-110.262,-53.879
57.683,3.31889,-4.27967,2.40365,-173.77,-113.175,-59.8001
57.687,3.14391,-4.52532,2.7376,-178.848,-115.248,-66.9145
57.693,2.85255,-4.59068,3.20063,-183.183,-119.647,-72.6104
57.697,2.48453,-4.57362,3.47017,-186.529,-128.07,-75.9214
57.702,2.13947,-4.50791,3.61638,-189.853,-138.732,-78.6201
57.708,1.89111,-4.5778,3.70162,-193.079,-149.855,-80.7172
57.712,1.72294,-4.66123,3.71682,-196.084,-161.119,-82.2334
57.718,1.68631,-4.79969,3.66263,-198.849,-172.242,-82.9997
57.722,1.71802,-5.00495,3.54366,-201.553,-182.045,-83.7647
57.728,1.8718,-5.34947,3.45834,-204.713,-190.001,-84.4816
57.732,2.11048,-5.62523,3.42322,-208.016,-196.267,-85.6793
57.737,2.14208,-5.85563,3.47737,-212.219,-202.596,-86.7736
57.743,2.17211,-6.33497,3.72067,-215.922,-210.758,-86.0056
57.747,2.35583,-6.89975,3.83703,-218.698,-217.867,-84.9392
57.753,2.6539,-7.23499,3.96624,-221.938,-222.934,-85.1403
57.757,2.74016,-7.50964,4.22393,-226.67,-228.637,-85.4078
57.763,2.72194,-7.94459,4.58589,-231.628,-235.179,-84.958
57.767,2.75522,-8.43857,5.0156,-235.818,-241.626,-84.2065
57.773,2.78833,-8.84564,5.44081,-239.696,-246.967,-83.833
57.777,2.92552,-9.22258,5.88141,-243.603,-250.145,-83.8566
57.783,2.90138,-9.51799,6.22996,-247.495,-252.083,-83.2337
57.788,2.94674,-9.96829,6.73257,-250.156,-255.184,-80.3845
57.792,3.23506,-10.3926,7.28232,-248.973,-261.748,-77.4365
57.798,3.69008,-10.5088,7.62858,-247.616,-266.405,-77.6342
57.802,3.91106,-10.8438,7.86675,-250.674,-266.886,-79.619
57.808,4.30821,-11.6126,8.06344,-254.218,-266.13,-81.1141
57.812,4.67631,-12.4148,7.96632,-257.328,-263.109,-81.5355
57.818,4.17671,-13.3627,8.04551,-263.398,-257.441,-80.826
57.822,3.02516,-14.5273,8.48973,-268.814,-251.842,-77.99
57.827,2.20628,-15.4456,9.1556,-271.301,-246.518,-74.9118
57.833,1.43595,-15.8515,10.4455,-273.289,-240.443,-73.715
57.837,0.117148,-15.8586,12.0591,-276.781,-234.426,-73.0561
57.843,-1.05567,-15.4542,13.3692,-280.264,-229.917,-71.3028
57.847,-1.83614,-14.9918,14.422,-283.119,-226.566,-67.9641
57.853,-2.30615,-14.9924,15.2741,-285.051,-224.761,-64.4136
57.857,-2.62516,-15.0872,15.9051,-284.687,-222.528,-62.09
57.862,-2.80978,-14.8588,16.4307,-282.881,-218.136,-61.4999
57.868,-2.68785,-14.8028,16.8416,-279.683,-212.743,-60.0946
57.872,-1.91094,-14.7754,17.3879,-273.232,-207.318,-56.7527
57.878,-0.93693,-14.3991,17.8683,-264.83,-200.401,-52.421
57.882,-0.528755,-13.5127,18.3742,-255.828,-189.44,-50.0163
57.887,-0.452036,-12.3202,18.7218,-245.635,-175.528,-50.0782
57.892,-0.750694,-11.3365,19.005,-233.975,-159.506,-52.4785
57.897,-1.6445,-10.9022,19.2834,-219.71,-141.671,-55.7791
57.902,-2.98955,-10.9171,19.8312,-202.269,-123.06,-57.5746
57.907,-4.97888,-10.9872,20.6979,-183.138,-105.439,-56.739
57.912,-7.3608,-10.5488,21.9797,-163.864,-91.365,-52.5817
57.916,-9.55438,-9.50084,23.4084,-143.572,-83.646,-43.2271
57.921,-10.9977,-8.09083,24.3827,-121.366,-81.2614,-29.0463
57.926,-11.5904,-6.50064,24.369,-97.2314,-79.5526,-12.4091
57.931,-11.1869,-5.15929,23.3348,-72.7411,-73.0496,3.83834
57.936,-10.4424,-4.44738,21.8438,-49.0412,-58.8399,16.3601
57.941,-9.94575,-4.12633,20.8762,-25.8099,-37.7864,23.7542
57.946,-9.29693,-4.61222,20.0836,-2.49364,-14.4074,28.9261
57.951,-8.6515,-5.42897,19.3263,20.7695,8.88429,33.1481
57.955,-7.88007,-9.72704,19.6773,41.3386,30.2555,40.3755
57.96,-6.66744,-14.2141,18.8243,59.8271,51.1721,60.4755
57.965,-1.92412,-8.95883,15.8474,76.9849,72.5699,60.7102
57.97,0.868383,-7.08527,12.3327,86.6375,102.174,50.8027
57.975,1.20755,-8.39853,6.50381,88.2195,134.246,37.5348
57.98,1.98146,-10.1278,-0.648816,69.4843,143.682,19.0248
57.985,7.85785,-14.9364,-6.70758,43.9058,125.818,11.1906
57.99,16.7791,-17.7983,-9.86404,30.1168,95.6654,11.6454
57.995,20.9837,-15.0468,-9.9492,29.6021,72.8676,12.0407
57.999,19.5855,-10.1759,-7.12632,37.9486,74.7285,8.04251
58.004,14.5937,-6.27484,-2.20359,45.4038,97.8591,-3.2895
58.009,8.55988,-4.34948,3.47148,45.1403,127.118,-18.0272
58.014,4.66045,-4.5247,8.12247,45.1018,148.92,-26.3911
58.019,4.47779,-7.18451,9.98341,48.4901,155.503,-24.7845
58.024,5.693,-10.5316,10.1946,53.7597,150.449,-16.4418
58.029,6.59429,-12.533,10.1793,60.0111,137.993,-4.96896
58.034,5.7838,-12.175,10.45,66.5714,125.918,7.7735
58.038,3.74736,-11.3598,11.348,71.6045,115.48,23.1726
58.043,1.76805,-10.2853,11.4212,73.5411,110.632,36.3925
58.048,0.332713,-9.5923,10.681,71.858,107.927,44.0179
58.053,-0.374724,-9.59467,9.69766,68.5931,102.161,47.2041
58.058,-0.422517,-9.7173,7.84885,65.7331,93.9323,49.0839
58.063,-0.288923,-9.80807,5.37761,62.9699,87.0788,50.6044
58.068,-0.266958,-9.7511,3.12183,60.2238,83.4021,51.2051
58.072,-0.2339,-9.55275,1.77214,58.0695,83.6969,50.8395
58.077,-0.397692,-9.79815,1.10545,56.2421,89.4847,49.2571
58.083,-0.794768,-9.80907,0.880572,54.4652,99.6317,44.4563
58.088,-1.57798,-9.81491,1.13908,51.9858,107.952,38.7447
58.093,-1.63774,-9.90703,1.21459,49.7675,113.718,33.767
58.097,-1.50006,-9.74915,1.77751,47.6818,117.207,28.0411
58.103,-1.96548,-8.99327,2.60764,46.6169,115.764,23.0132
58.107,-2.56402,-8.5288,3.5369,47.3794,109.877,21.7381
58.113,-2.52466,-8.4857,3.93241,49.0553,99.2256,23.8653
58.118,-2.14711,-8.80135,4.44473,51.6959,86.2795,26.3216
58.123,-2.14938,-9.17058,5.35748,55.965,73.1858,29.7319
58.128,-2.26351,-9.26553,5.34734,59.0479,61.5246,33.9202
58.132,-2.07315,-9.4931,4.81279,59.6884,54.5501,37.3286
58.138,-1.46525,-9.7874,4.60547,60.8696,49.2471,40.4278
58.142,-0.918416,-9.82373,4.48317,62.009,43.7577,42.5426
58.148,-0.809375,-9.4114,4.36749,60.5535,39.5212,42.1577
58.152,-1.03235,-8.73863,4.62077,58.4583,35.3364,41.6313
58.158,-1.04994,-8.33068,4.92318,57.1466,29.1346,42.5129
58.163,-0.835816,-8.18576,5.17708,55.3419,23.2091,43.3027
58.167,-0.5639,-8.06775,5.3582,52.9604,20.267,43.1018
58.173,-0.331272,-8.1155,5.72261,50.8007,19.2248,42.8004
58.177,0.0738024,-8.34165,5.70103,48.5039,17.8611,43.1598
58.183,0.493797,-8.40637,5.34033,45.6358,16.1057,43.3791
58.187,0.774961,-8.4285,4.64368,42.0988,14.6258,43.8813
58.193,0.857508,-8.53993,4.19685,39.0336,14.6311,44.3697
58.197,0.65935,-8.53391,3.95466,36.42,16.4191,44.3085
58.202,0.506182,-8.61746,3.83177,34.7034,18.4463,43.9635
58.208,0.464591,-8.83784,3.7743,33.3646,20.1543,43.7952
58.212,0.183639,-9.05799,3.64646,31.5412,20.9029,43.0989
58.218,-0.214344,-9.0651,3.41882,30.3194,20.4569,41.8277
58.222,-0.3323,-8.97511,3.26602,29.7176,19.7289,40.5987
58.228,-0.32954,-8.95323,3.1706,29.2893,19.4812,39.2334
58.232,-0.568879,-8.99842,3.12902,28.9545,19.3203,36.8982
58.237,-1.05198,-8.94836,3.22438,28.9356,18.6795,34.75
58.243,-1.2621,-8.95255,3.42917,29.5139,16.6459,33.2375
58.248,-1.23895,-8.95075,3.4822,29.8951,14.1782,31.721
58.253,-1.12197,-8.97019,3.48329,30.7514,11.5589,30.686
58.257,-1.0445,-8.95348,3.69687,31.6621,8.34448,30.0829
58.263,-0.955646,-8.69208,3.77042,32.424,4.17688,30.3327
58.267,-0.925059,-8.54597,4.02,33.5633,-0.0538975,31.8534
58.273,-0.781073,-8.46559,4.20802,34.4818,-4.41647,34.3242
58.277,-0.60843,-8.44245,4.29936,35.1991,-8.40847,36.3133
58.282,-0.431232,-8.48773,4.4278,35.7166,-11.0963,37.9429
58.287,-0.294567,-8.65462,4.40194,35.9103,-12.9029,39.094
58.292,-0.0898054,-8.8827,4.22768,35.7266,-13.7105,39.8412
58.297,0.0563874,-8.97748,4.02384,34.8068,-13.1218,39.8974
58.302,0.120099,-8.96771,3.99137,33.609,-11.9474,39.4762
58.307,0.149945,-8.92762,3.9454,32.7586,-10.391,39.1494
58.312,0.0954954,-9.01581,3.77525,32.2784,-8.02169,38.5509
58.316,0.0109982,-9.17991,3.60174,31.5696,-5.00949,37.2199
58.321,-0.111884,-9.21722,3.47445,30.7469,-1.41312,34.9318
58.326,-0.283868,-9.23858,3.30227,30.1437,1.73875,32.8055
58.331,-0.428477,-9.16587,3.34215,30.1959,4.56466,30.9667
58.336,-0.612094,-8.96023,3.52005,30.1975,7.13044,29.1036
58.341,-0.749341,-8.88199,3.68982,30.1486,8.8068,27.5132
58.346,-0.785425,-8.92094,3.77267,30.3737,10.0728,26.2196
58.35,-0.814494,-8.98873,3.78852,30.526,10.6985,25.338
58.355,-0.833547,-8.97554,3.87948,30.2852,11.2884,24.4306
58.36,-0.841419,-8.91087,4.04604,30.0673,11.1012,23.8206
58.365,-0.841423,-8.76396,4.18213,30.2587,10.1475,23.819
58.37,-0.77078,-8.70142,4.22015,30.4641,9.60168,24.4812
58.375,-0.692587,-8.62157,4.34604,30.427,8.96806,25.2081
58.38,-0.72819,-8.54763,4.43482,30.1822,8.78113,25.8783
58.385,-0.682822,-8.41738,4.58283,29.5134,9.10724,26.2308
58.389,-0.546396,-8.40768,4.70082,28.8567,9.48632,26.7582
58.394,-0.5253,-8.31523,4.73825,28.2234,10.4484,27.1289
58.399,-0.61028,-8.12491,4.64643,27.3746,11.6291,27.4484
58.404,-0.635201,-8.06173,4.57554,26.4363,12.8704,27.4575
58.409,-0.582381,-8.34677,4.47256,25.5355,14.1667,27.1065
58.414,-0.626614,-8.61326,4.36068,25.3749,15.8302,26.8059
58.419,-0.862579,-8.77084,4.28768,24.9707,17.203,26.2907
58.424,-1.05072,-8.73323,4.14392,24.5847,17.8725,25.7528
58.429,-1.2432,-8.61671,4.12706,24.1643,18.109,25.4762
58.433,-1.26944,-8.70531,4.28778,23.8836,17.2353,26.0583
58.438,-1.23815,-8.64824,4.51409,23.8357,16.8024,26.9596
58.443,-1.27248,-8.41165,4.6522,23.1164,16.8684,27.2879
58.448,-1.13857,-8.37479,4.72535,22.3225,16.6193,27.312
58.453,-1.18889,-8.29313,4.84625,21.756,16.7831,27.1952
58.458,-1.28723,-8.34367,4.94194,21.4295,16.8343,27.4794
58.463,-1.28823,-8.50395,4.98718,21.095,16.028,28.0662
58.468,-1.44149,-8.48584,5.08764,21.2837,14.2444,28.8273
58.472,-1.31311,-8.30997,4.972,21.3165,12.741,30.1321
58.478,-0.990721,-8.39269,4.93449,21.6325,11.9384,31.7804
58.482,-0.810387,-8.59415,4.97121,21.9721,11.7696,33.3417
58.488,-0.880975,-8.99321,4.90129,22.5357,11.6611,35.0184
58.493,-1.15347,-8.97298,4.66166,23.105,12.311,36.9976
58.498,-1.23754,-8.90406,4.32731,23.0673,12.5119,38.452
58.503,-0.982852,-8.92342,4.47429,24.6894,13.0699,39.5336
58.507,-0.962896,-9.05366,4.82831,27.224,14.2218,40.1806
58.513,-1.04483,-9.23823,4.91662,29.8359,15.8895,40.6659
58.517,-1.13817,-9.21772,4.73466,31.9876,17.3328,40.676
58.523,-1.12259,-9.31066,4.62629,34.2391,18.464,40.7523
58.527,-1.08225,-9.11562,4.28357,36.8115,19.7217,41.1088
58.533,-0.807794,-9.58564,4.26797,38.6861,21.2733,41.1481
58.538,-0.807494,-10.0611,4.67602,42.2594,23.7973,41.9678
58.542,-1.15829,-9.70517,4.89196,45.5124,26.2964,42.6469
58.548,-1.21987,-9.61219,4.78284,46.6357,27.0015,43.0371
58.552,-1.11111,-9.92573,4.7966,48.3384,27.7478,43.9285
58.558,-1.05735,-10.5603,4.85949,50.6456,29.4227,45.5833
58.562,-1.1323,-10.7323,4.84655,53.9095,30.4624,46.6821
58.568,-1.00687,-10.9345,4.82545,56.62,30.9351,47.1814
58.572,-0.961499,-11.3302,5.10423,59.7424,31.7776,48.6905
58.577,-1.08632,-11.3462,5.52238,63.862,32.2246,51.443
58.583,-1.11728,-10.971,5.51798,66.9105,31.5947,53.3817
58.587,-0.966714,-11.2994,5.66372,69.8867,30.426,55.8718
58.593,-1.05776,-11.4792,5.82815,73.8708,29.9197,58.837
58.597,-1.00751,-11.6034,6.00599,77.2628,28.5884,61.2835
58.603,-0.935358,-11.8403,6.3703,80.113,26.9986,64.3995
58.607,-0.888876,-11.7274,6.59372,83.022,25.2176,67.7617
58.612,-0.661062,-11.6758,6.72273,84.9698,23.3106,70.632
58.618,-0.448551,-11.7091,7.02232,87.6977,22.1812,73.6816
58.623,-0.175982,-11.692,7.16375,90.8902,20.9965,76.5019
58.628,0.178288,-11.6784,7.23196,93.5958,19.8097,78.5269
58.632,0.471169,-11.7922,7.55197,96.3616,19.2604,80.0344
58.638,0.680613,-12.0953,7.76288,99.9828,18.9694,81.2982
58.642,0.861163,-12.389,8.00477,103.432,18.3473,82.1624
58.648,0.953561,-12.7088,8.10682,106.718,17.6765,83.4369
58.652,0.958674,-12.9194,8.19693,110.594,15.6884,85.7712
58.658,0.989224,-13.0699,7.96285,114.239,12.3059,88.8
58.663,1.16023,-13.4199,7.78101,117.547,8.39327,92.3745
58.667,1.52478,-13.6943,7.6732,120.975,4.07382,96.8303
58.672,1.90876,-14.0329,7.52828,124.624,-0.588204,101.588
58.677,2.31363,-14.5246,7.44833,128.936,-5.34881,106.627
58.682,2.83917,-14.9895,7.37359,134.247,-10.5071,112.165
58.687,3.47469,-15.441,7.37244,139.491,-16.2775,118.575
58.692,4.06039,-15.6206,7.57162,144.944,-22.9748,124.803
58.697,4.56969,-15.774,7.89029,151.104,-31.0497,131.121
58.702,5.05162,-16.0026,8.28873,158.12,-40.176,137.72
58.707,5.53038,-16.25,8.546,165.068,-49.1848,145.034
58.711,5.67555,-16.1886,8.33343,170.412,-55.7422,152.761
58.716,5.56685,-15.8903,7.35121,173.046,-58.2338,160
58.721,5.06169,-15.6078,5.8463,172.746,-52.2604,165.371
58.726,4.12654,-15.877,4.27076,170.461,-36.0639,168.02
58.731,3.25447,-16.5693,3.44581,167.604,-11.8747,166.948
58.736,2.19731,-17.0296,3.59176,163.614,14.9722,161.551
58.741,1.25109,-16.9048,4.28351,158.482,39.7408,153.027
58.746,0.394162,-15.9023,5.30866,152.755,58.3635,144.061
58.75,-0.358093,-14.382,6.02436,146.35,70.9104,136.682
58.755,-1.12463,-12.856,6.12075,138.818,77.9965,131.994
58.76,-1.14321,-11.7944,5.50482,130.201,81.8617,126.928
58.765,-0.832399,-11.0165,4.76292,121.753,84.9877,119.305
58.77,-0.801635,-10.5719,4.34365,112.686,87.5244,107.472
58.775,-1.63385,-9.64303,5.27569,104.094,86.576,94.7011
58.78,-2.8767,-8.19246,6.66353,97.4392,77.3556,89.4754
58.784,-3.26986,-7.6943,6.40802,93.5613,58.2888,94.642
58.789,-2.90461,-7.86315,5.29016,88.5457,43.7407,101.332
58.794,-3.13965,-7.50383,5.28971,80.9613,38.3417,105.283
58.799,-4.43407,-6.75158,5.63187,71.5768,35.9065,106.396
58.804,-6.78596,-5.25021,5.08688,59.7044,32.3095,101.961
58.809,-7.57327,-3.12241,3.34404,43.9666,22.6566,94.7924
58.814,-4.5407,-4.31046,1.5868,30.425,-2.85233,99.7686
58.819,-0.0276748,-5.97075,2.28878,25.2882,-28.0015,101.516
58.823,-1.78063,-5.03786,2.19185,18.7028,-55.3796,85.2074
58.828,-5.84595,-3.11075,-0.949273,-0.603623,-95.2385,78.2253
58.833,-2.76563,-3.50966,-3.26298,-16.1975,-121.24,91.3542
58.838,2.28953,-5.07127,-3.49294,-17.4489,-126.971,94.1343
58.843,3.93342,-4.8037,-3.30032,-22.5938,-133.404,83.678
58.848,4.77828,-4.01499,-3.11459,-34.0235,-146.3,75.5936
58.853,5.89171,-3.60615,-2.93454,-43.9274,-161.494,71.1452
58.858,6.6966,-3.0371,-2.67286,-49.4279,-173.125,67.7193
58.863,6.57266,-2.16634,-2.25401,-53.615,-179.766,63.3308
58.868,5.84518,-1.5488,-1.6363,-59.9887,-183.724,58.0698
58.873,5.47731,-1.4903,-0.835954,-68.9596,-186.22,52.078
58.878,5.2791,-1.62248,0.16078,-78.3281,-189.308,46.0374
58.882,5.01633,-1.79283,1.02643,-86.8666,-192.668,40.7244
58.888,4.72345,-1.94178,1.42458,-95.04,-193.627,35.3199
58.892,4.45073,-2.14409,1.50977,-103.912,-190.789,29.3466
58.898,4.38708,-2.31415,1.53725,-113.799,-184.909,22.077
58.902,4.50301,-2.5299,1.47578,-123.891,-178.862,14.0456
58.908,4.615,-2.76207,1.41789,-134.061,-172.629,4.81431
58.913,4.76961,-3.02879,1.47281,-144.042,-165.716,-5.65936
58.917,4.83966,-3.25645,1.74248,-153.832,-159.757,-16.1343
58.923,4.81377,-3.40946,2.1467,-162.891,-155.75,-25.942
58.927,4.70174,-3.61367,2.4838,-171.233,-153.012,-33.9235
58.933,4.66411,-3.84818,2.73795,-178.725,-150.945,-40.7816
58.937,4.60689,-4.13573,2.84233,-185.58,-149.861,-46.8749
58.943,4.42052,-4.36989,3.00473,-192.001,-149.336,-51.8706
58.947,4.12424,-4.62554,3.02413,-198.475,-148.592,-56.6516
58.952,3.71366,-4.93054,3.06305,-205.004,-148.613,-61.4107
58.958,3.44021,-5.19597,3.23596,-211.148,-150.084,-65.5444
58.962,3.10264,-5.44404,3.29606,-217.121,-152.535,-68.7551
58.968,2.65322,-5.75522,3.2894,-223.138,-154.335,-71.4771
58.972,2.31143,-6.04741,3.37317,-229.802,-155.683,-74.6323
58.978,2.05447,-6.36147,3.62318,-236.504,-157.869,-78.0852
58.982,1.83751,-6.75223,3.93709,-242.821,-162.338,-80.8946
58.987,1.89628,-7.32227,4.12893,-248.282,-168.865,-82.4811
58.993,2.09128,-7.89311,4.27476,-252.902,-174.554,-84.0383
58.998,2.18277,-8.55878,4.53172,-257.218,-179.315,-85.8978
59.003,2.38958,-9.08557,4.86736,-260.954,-184.238,-87.5352
59.007,2.66519,-9.57547,5.3392,-264.142,-189.676,-88.16
59.013,3.01048,-10.0805,5.76728,-266.004,-195.309,-87.4762
59.017,3.42997,-10.5046,6.1992,-266.97,-198.558,-86.873
59.023,3.71799,-10.6415,6.92112,-268.22,-197.999,-87.8077
59.027,3.89347,-10.4787,7.7859,-270.715,-196.802,-89.1468
59.033,4.13526,-10.3603,8.3017,-273.132,-197.606,-89.4593
59.038,4.44459,-10.6482,8.44254,-275.531,-198.706,-88.4909
59.042,4.69417,-11.4502,8.54254,-277.621,-198.952,-87.5048
59.048,4.7694,-12.4759,8.98147,-280.012,-196.778,-88.1669
59.052,4.31962,-13.3684,9.71089,-283.436,-191.647,-91.5052
59.058,3.28115,-13.8303,10.8457,-286.816,-186.487,-95.5587
59.062,1.98946,-14.0303,12.1095,-288.95,-185.436,-97.0066
59.067,0.873652,-14.3316,12.7933,-290.73,-187.072,-96.3453
59.072,0.147065,-14.5858,13.0895,-293.698,-185.011,-96.4434
59.077,-0.559655,-14.9263,13.2936,-297.789,-177.004,-98.6673
59.082,-1.32524,-15.5148,13.6403,-301.418,-166.055,-102.069
59.087,-1.88066,-16.1017,14.1942,-303.671,-156.282,-106.17
59.092,-2.38904,-16.6432,14.8867,-304.422,-149.731,-110.337
59.097,-2.62896,-16.937,15.6661,-302.515,-146.264,-112.009
59.101,-2.61495,-16.8193,16.447,-297.41,-145.111,-109.667
59.106,-2.54289,-16.3551,16.9719,-290.737,-144.386,-104.62
59.111,-2.57429,-15.4024,17.4649,-282.728,-142.692,-98.1473
59.116,-3.01275,-14.2185,17.8209,-274.046,-139.937,-92.0221
59.121,-3.33087,-13.38,18.2179,-263.91,-134.968,-86.7108
59.126,-4.02447,-12.7355,18.8368,-249.168,-128.221,-80.2549
59.131,-5.24625,-12.2047,19.3897,-230.981,-120.509,-73.5002
59.136,-6.46793,-11.7261,20.3195,-211.253,-112.001,-66.049
59.141,-7.90333,-11.2365,21.4432,-191.325,-103.505,-56.1377
59.145,-9.47164,-10.3749,22.7493,-170.35,-97.0295,-43.3225
59.15,-10.9194,-9.16212,24.0763,-147.637,-92.8465,-27.6762
59.155,-11.8051,-7.60681,25.441,-122.829,-90.754,-10.4142
59.16,-11.5878,-6.09432,26.7404,-95.4915,-90.3099,7.12916
59.165,-10.9156,-4.84691,26.5268,-65.5765,-89.093,23.2998
59.17,-10.5421,-3.44039,24.5202,-38.1225,-76.8057,33.4155
59.175,-10.1112,-3.37136,22.2959,-14.339,-53.4331,37.6834
59.18,-9.74767,-4.50756,20.7671,8.93029,-24.5026,38.8776
59.184,-9.40521,-5.96547,19.8737,30.6784,5.01948,38.7417
59.189,-9.76983,-13.3902,20.2686,47.8888,32.2588,48.7086
59.194,-6.44039,-11.585,18.6682,69.5567,53.1597,60.2201
59.199,-2.7062,-7.10909,15.8552,86.5891,74.6439,54.5791
59.204,-0.915947,-7.94522,11.3611,96.1702,105.733,47.1669
59.209,2.115,-10.6022,1.52852,87.1009,125.912,33.0834
59.214,9.42075,-14.6934,-7.09547,59.679,116.236,18.4044
59.218,18.6758,-16.9279,-8.62423,38.1735,87.8879,11.607
59.223,23.7272,-14.5871,-7.5522,42.1207,63.6967,14.1163
59.228,22.8863,-9.30543,-5.9173,58.2683,68.4953,13.8207
59.233,17.3095,-4.89754,-1.58206,63.0977,95.2998,1.4316
59.238,10.9501,-3.59685,4.58555,54.4959,124.999,-15.2456
59.243,7.76173,-5.15261,9.03481,50.6374,148.174,-23.6318
59.248,6.73293,-7.88101,11.2713,54.1515,164.909,-23.3164
59.253,5.59054,-10.3252,12.1088,60.572,172.467,-14.3762
59.257,4.05121,-11.969,12.1114,66.7586,168.992,0.923524
59.263,2.37429,-12.4371,11.4869,69.5829,159.021,16.8466
59.267,0.737132,-11.8938,10.266,68.5009,150.954,29.6951
59.273,-0.281593,-10.435,9.17308,65.3054,146.924,35.7815
59.277,-1.06783,-9.37854,8.8612,63.4203,141.591,36.6737
59.283,-1.82252,-8.85961,8.52089,61.0186,134.235,36.8517
59.288,-1.5322,-8.73038,7.68919,60.1139,123.869,40.2226
59.292,-0.600487,-8.90291,5.83083,59.7793,113.47,45.0547
59.298,-0.184857,-9.14333,3.50898,57.3874,105.949,48.4984
59.302,-0.388059,-9.37865,1.8054,52.5912,102.76,48.753
59.308,-1.21411,-9.42738,1.31249,48.2879,102.866,46.2931
59.312,-1.92174,-9.59306,1.74119,45.9684,103.605,43.2059
59.318,-2.23833,-9.60682,2.23383,45.725,104.741,39.9815
59.322,-2.38468,-9.63868,2.44591,45.9575,105.147,37.6059
59.327,-3.03246,-9.48826,2.32672,45.5116,104.139,35.833
59.333,-2.7534,-9.41935,2.2965,45.0942,100.917,34.387
59.337,-2.12493,-9.22873,3.47411,46.9939,95.156,33.2291
59.343,-2.00902,-8.69595,5.2676,51.0866,85.531,34.068
59.347,-1.87162,-8.64047,5.9886,54.5131,73.5418,37.373
59.353,-1.72251,-8.86297,5.90678,57.1806,63.0299,42.5419
59.357,-1.46723,-9.09587,4.9447,57.778,52.7246,47.1956
59.362,-1.23113,-9.38882,4.06397,55.7201,45.0238,49.1154
59.368,-1.12709,-9.6164,3.97347,54.5535,40.9371,49.9008
59.373,-1.12227,-9.613,4.16772,54.7805,39.054,49.3471
59.378,-1.00355,-9.31277,4.4013,53.7099,37.7721,47.5088
59.382,-0.81703,-8.91432,4.81446,52.2156,35.4886,44.8526
59.388,-0.766024,-8.51056,5.40428,51.3669,31.3438,43.7587
59.392,-0.804897,-8.18799,6.0032,50.9121,25.7549,44.8853
59.398,-0.190488,-8.36343,6.09882,50.7099,18.949,47.3213
59.402,0.630354,-8.59844,5.48762,49.4226,14.4185,49.1228
59.408,0.990634,-8.60347,4.45593,45.7783,14.4333,49.1799
59.413,0.86597,-8.4718,4.06362,41.0022,16.6108,47.2978
59.417,0.51777,-8.25515,4.50209,37.8474,18.2582,45.4209
59.423,0.403284,-8.27336,4.94691,36.7076,18.5607,45.4725
59.427,0.575775,-8.47439,4.88708,35.4194,18.6408,46.2195
59.433,0.661415,-8.72985,4.42344,32.7506,19.6133,46.1108
59.437,0.425096,-8.84709,4.01559,29.9753,21.2967,44.8994
59.443,0.101364,-8.9377,3.78129,28.4346,22.338,43.2429
59.447,-0.211491,-8.88566,3.68197,27.8683,22.8753,41.7349
59.452,-0.448873,-8.83587,3.54631,27.2536,22.6222,39.8943
59.458,-0.744017,-8.82469,3.42634,26.9115,21.7053,38.0013
59.462,-0.971393,-8.89549,3.45355,26.8046,20.7494,36.189
59.467,-0.983539,-8.90697,3.54147,27.1016,18.9994,34.5251
59.472,-0.903357,-8.90041,3.55731,27.3417,17.0655,33.2615
59.477,-0.909564,-8.89529,3.59967,27.2854,15.111,32.0675
59.482,-0.880363,-8.90241,3.66332,27.286,12.0817,31.067
59.487,-0.784642,-8.87517,3.81059,27.5462,7.86076,31.0907
59.492,-0.675813,-8.72955,3.84255,27.7695,4.31549,31.3173
59.496,-0.643858,-8.57711,4.14195,27.7942,1.64804,31.7607
59.501,-0.565288,-8.40554,4.45238,28.0194,-1.54218,32.4763
59.506,-0.546575,-8.51298,4.58892,28.135,-4.01678,33.5793
59.511,-0.57155,-8.60993,4.57152,27.9646,-6.13388,34.2106
59.516,-0.463846,-8.6966,4.4331,27.8253,-8.11997,34.9066
59.521,-0.341765,-8.70379,4.31643,27.6093,-9.26155,35.3097
59.526,-0.29339,-8.80172,4.15713,27.0508,-9.49889,35.4842
59.531,-0.289347,-8.9617,4.06818,26.7767,-9.76861,35.4145
59.535,-0.354086,-8.96223,3.9558,26.1664,-10.5196,35.2155
59.54,-0.376193,-8.89456,3.91513,24.975,-10.0506,34.6665
59.545,-0.348482,-8.75964,3.91751,23.5286,-7.83451,33.1164
59.55,-0.179948,-8.70608,3.83608,22.0086,-4.47196,30.9475
59.555,-0.211248,-8.76842,3.81031,20.2992,-0.107287,28.1051
59.56,-0.335866,-8.83158,3.72273,18.8087,3.0821,25.5817
59.565,-0.489961,-8.81779,3.751,17.8633,5.87953,23.8209
59.57,-0.545113,-8.76883,3.78684,17.4995,7.55864,22.5498
59.575,-0.583613,-8.7848,3.76091,17.3051,8.5838,21.4861
59.579,-0.555708,-8.71284,3.85923,17.5078,9.46962,20.6287
59.584,-0.498961,-8.83852,3.88329,18.1322,9.69254,20.6244
59.589,-0.508747,-8.92909,3.88631,19.0507,9.78621,21.0861
59.594,-0.465883,-8.98807,3.79083,19.6994,9.48561,21.7284
59.599,-0.306936,-9.01329,3.67038,20.1838,10.4451,22.2565
59.604,-0.293167,-8.9718,3.60671,20.009,12.586,22.0894
59.609,-0.22839,-8.90868,3.5062,19.8104,14.7224,21.7123
59.614,-0.409521,-8.83169,3.56404,19.4288,16.5261,20.8308
59.618,-0.561266,-8.73523,3.92992,19.6018,17.5344,20.258
59.623,-0.629302,-8.61795,4.272,19.799,18.6485,20.0349
59.628,-0.785468,-8.39986,4.52448,20.0265,19.0615,19.8941
59.633,-0.858872,-8.559,4.71986,20.1075,18.0419,20.3675
59.638,-0.870136,-8.72517,4.66894,20.5128,16.8719,21.162
59.643,-0.914834,-8.68137,4.46152,20.8671,15.3405,21.7926
59.648,-0.887804,-8.69517,4.40865,21.2749,14.3204,22.0517
59.652,-0.928125,-8.65413,4.35388,21.6125,14.1193,21.663
59.658,-0.915884,-8.64682,4.20202,21.4887,14.4269,21.3868
59.663,-0.979704,-8.67648,4.20707,21.5497,15.065,20.8699
59.667,-0.983922,-8.72059,4.23074,21.5453,15.1895,20.6195
59.673,-1.09084,-8.711,4.36235,21.6189,15.3526,20.7141
59.677,-1.13362,-8.70954,4.41169,21.9395,14.7989,21.2216
59.683,-1.05598,-8.67981,4.37723,22.4721,13.674,22.0363
59.687,-0.900846,-8.72292,4.40791,22.9688,13.4277,23.3332
59.693,-0.657598,-8.81745,4.50487,23.8824,13.2217,24.8658
59.697,-0.634705,-8.63779,4.49573,24.8122,13.5227,26.4569
59.702,-0.405187,-8.68588,4.3288,25.5692,14.7543,27.7998
59.708,-0.262347,-8.94058,4.38759,27.0156,16.6716,28.8019
59.712,-0.52255,-8.91158,4.41362,29.071,18.457,29.9508
59.718,-0.734967,-8.94108,4.26847,30.5661,19.65,30.7853
59.722,-0.763945,-9.11055,4.06096,31.9229,20.3186,32.0011
59.728,-0.798562,-9.11677,3.81446,33.9132,21.6411,33.4863
59.732,-0.979234,-9.22596,3.80657,35.6553,22.7974,34.5064
59.738,-1.25476,-9.35533,3.9351,37.7926,23.7153,36.3382
59.743,-1.23484,-9.51362,4.19228,40.4496,23.9832,38.3732
59.748,-1.22132,-9.54522,4.17749,42.4933,23.8783,40.3079
59.753,-1.39099,-9.5854,4.17804,44.3871,23.9269,42.2919
59.757,-1.18456,-9.51097,4.42037,47.0055,23.9369,44.4076
59.763,-0.917781,-9.50673,4.55435,49.3716,24.5854,45.5807
59.767,-1.04155,-9.7443,4.92409,51.959,25.7738,47.1076
59.773,-0.829164,-9.74808,5.17295,54.8517,26.427,47.9017
59.777,-0.452206,-9.87089,5.40294,58.0024,27.523,48.4801
59.783,-0.0581709,-10.0323,5.69859,60.9121,29.4647,49.2452
59.788,-0.0725731,-10.1211,5.87192,63.8444,31.8373,49.6441
59.792,-0.224888,-10.2216,5.94136,66.6106,33.8564,50.0338
59.798,-0.321274,-10.5016,5.98597,68.9202,35.6811,51.153
59.802,-0.376766,-10.762,5.84464,71.8469,36.9727,52.7103
59.808,-0.476371,-11.094,5.85169,74.5111,37.3166,54.53
59.812,-0.688395,-11.4804,6.09538,77.8396,37.0351,57.0684
59.818,-0.840625,-11.6437,6.31923,81.4629,35.9918,59.624
59.822,-0.903558,-11.7839,6.36274,84.7782,34.1958,62.3021
59.827,-0.849828,-12.0246,6.44518,87.709,32.165,65.5247
59.833,-0.665095,-12.2035,6.51994,90.552,29.7183,68.9439
59.837,-0.508056,-12.1648,6.64609,93.6331,27.6356,72.2569
59.843,-0.257358,-12.3114,6.82685,96.9724,25.8946,75.2147
59.847,0.0208434,-12.5362,7.13971,100.419,24.6482,77.8663
59.853,0.174502,-12.6896,7.42623,104.062,23.5824,80.1726
59.857,0.194385,-12.8277,7.76925,107.862,21.4842,83.2271
59.862,0.534113,-13.043,7.52657,111.745,18.4683,86.8951
59.867,0.874285,-13.371,7.28619,114.664,16.4354,90.0127
59.872,1.03715,-13.7135,7.40029,117.785,15.3417,93.0881
59.877,1.14843,-13.9313,7.50358,121.334,13.5089,96.5916
59.882,1.35625,-14.1605,7.44312,125.03,10.7435,100.878
59.887,1.65377,-14.4913,7.18819,128.934,7.58217,105.292
59.892,1.85471,-14.9817,6.86955,132.943,4.45869,108.77
59.896,1.84376,-15.4606,6.76113,136.552,2.58396,111.984
59.901,1.94872,-15.8402,6.74335,140.798,0.406239,115.735
59.906,2.04361,-16.234,6.50148,144.322,-3.41806,120.525
59.911,2.12612,-16.384,6.35889,147.924,-9.72336,126.102
59.916,2.25041,-16.5475,6.14225,151.458,-17.5759,132.43
59.921,2.58796,-16.5543,6.18773,154.789,-28.0999,140.645
59.926,2.38446,-16.6895,6.54206,158.444,-34.3668,147.848
59.93,2.56016,-16.6715,6.74177,162.629,-40.9593,153.898
59.935,2.40468,-16.5958,6.98876,166.532,-46.3796,161.339
59.94,1.98776,-16.5803,7.2806,170.662,-47.8315,168.457
59.945,2.39427,-16.7336,7.10143,173.828,-44.0487,172.738
59.95,3.01937,-17.075,6.20831,173.996,-36.3984,175.289
59.955,3.51352,-17.2769,5.23526,171.731,-27.5958,175.467
59.96,3.36927,-16.775,4.60353,168.43,-17.4471,173.818
59.965,2.84038,-15.8283,3.9559,163.822,-6.97388,171.565
59.969,2.20234,-14.5233,3.64712,159.027,4.44857,167.824
59.974,1.34591,-13.1613,3.87961,154.589,15.3189,163.415
59.979,0.767928,-11.9217,4.2669,148.959,23.428,157.922
59.984,0.296982,-10.716,4.37275,141.528,28.1064,152.421
59.989,0.238297,-9.78035,4.04518,132.052,30.1721,146.64
59.994,0.155423,-9.11221,3.53945,120.398,31.0129,139.782
59.999,0.1776,-8.78367,3.12917,107.187,28.3564,131.897
60.004,0.377409,-8.64642,2.95336,94.9503,23.2225,122.286
60.009,0.809082,-8.49468,2.86238,86.4314,15.6686,113.831
60.013,1.51784,-8.14085,2.4268,82.9618,6.08895,109.813
60.018,2.33089,-7.42605,2.12218,81.4349,-2.03827,110.44
60.023,0.919373,-6.00014,2.23517,78.7893,-1.46938,109.238
60.028,-1.08429,-3.52129,2.63241,68.8082,1.80617,104.127
60.033,-2.92983,-1.40291,3.28659,51.571,-3.60593,99.9112
60.038,-3.14888,-1.80848,3.41453,35.4214,-9.69551,98.8506
60.043,-1.31728,-2.43102,3.88856,27.0042,-21.167,97.7736
60.048,0.0248748,-3.11671,5.20151,26.0929,-36.7158,97.6003
60.052,-0.119593,-1.69198,4.78705,24.6868,-58.2545,79.1639
60.058,-1.99542,0.810168,2.75581,2.08631,-74.7445,57.9462
60.062,-0.83245,-0.842154,1.53992,-20.2214,-65.9908,53.5459
60.068,1.9991,-2.66661,-0.122761,-31.4783,-51.4962,39.5458
60.072,3.67872,-3.84079,-1.27352,-48.959,-43.9526,22.884
60.077,5.15755,-4.55787,-1.43685,-66.3244,-37.9314,5.5672
60.083,5.93857,-4.25006,-1.25327,-77.3994,-32.6829,-14.2538
60.087,5.37277,-3.36361,-1.08264,-86.8093,-29.634,-30.2442
60.093,4.62809,-2.79949,-0.8321,-96.7686,-28.4133,-39.785
60.097,4.13871,-2.56519,-0.397509,-106.653,-28.5252,-44.4109
60.103,3.86113,-2.57024,0.293741,-115.861,-28.5809,-48.4406
60.107,3.85357,-2.56039,1.19077,-123.871,-30.3224,-54.2374
60.113,3.61925,-2.57684,1.79386,-129.793,-35.2705,-59.9551
60.118,3.2888,-2.71623,2.05964,-135.029,-41.7731,-64.8659
60.123,2.99235,-2.83276,2.26265,-140.218,-47.7897,-69.8633
60.128,2.60012,-2.9937,2.50247,-145.567,-53.3537,-75.2429
60.132,2.20238,-3.1651,2.82944,-151.403,-58.8667,-80.603
60.138,1.94462,-3.33261,3.14884,-156.824,-66.9081,-84.6098
60.142,1.64345,-3.58479,3.24945,-161.191,-77.7295,-86.6555
60.148,1.44886,-3.83679,3.1988,-165.236,-89.6827,-87.8265
60.152,1.49321,-4.04179,3.15912,-169.423,-101.511,-90.0486
60.158,1.51986,-4.25135,3.16886,-174.226,-112.704,-92.569
60.163,1.58152,-4.42592,3.14049,-179.447,-122.423,-94.825
60.167,1.74808,-4.59415,3.10293,-184.753,-130.997,-97.8043
60.173,1.91023,-4.74479,3.1991,-189.617,-139.327,-100.804
60.177,1.98373,-4.82194,3.34273,-194.005,-148.589,-103.235
60.183,2.01827,-5.09741,3.39194,-197.727,-158.702,-104.091
60.187,2.23656,-5.46112,3.45005,-200.489,-169.469,-104.368
60.193,2.3104,-5.7002,3.67778,-203.62,-178.858,-104.845
60.197,2.27218,-5.99405,3.96664,-206.949,-189.257,-104.215
60.202,2.33755,-6.27594,4.21293,-209.655,-200.11,-102.616
60.208,2.44263,-6.41523,4.42667,-212.448,-209.665,-100.787
60.212,2.36145,-6.61138,4.56524,-217.128,-218.153,-99.4059
60.218,2.31926,-6.94971,4.76086,-222.025,-226.473,-98.1451
60.222,2.49459,-7.24629,4.98388,-226.076,-234.081,-96.6052
60.228,2.70639,-7.53502,5.26385,-229.994,-240.936,-94.8119
60.232,2.8635,-7.96098,5.51392,-234.25,-247.112,-93.1366
60.238,3.28141,-8.40196,5.732,-238.888,-251.587,-92.4826
60.243,3.95209,-8.82525,6.04086,-242.661,-254.015,-92.9976
60.248,4.31887,-9.28901,6.56033,-246.539,-253.963,-93.7665
60.252,4.33203,-9.88308,7.57348,-251.567,-252.779,-94.6059
60.257,4.607,-10.456,8.67069,-254.954,-255.604,-96.1141
60.262,4.63841,-11.089,9.64085,-257.426,-258.588,-96.7656
60.267,4.66587,-11.5596,10.2294,-260.431,-257.995,-96.8638
60.272,4.54008,-11.8494,10.453,-265.162,-251.977,-98.5475
60.277,3.91274,-12.2038,10.5202,-271.689,-240.669,-101.452
60.282,3.20101,-12.7622,10.8658,-278.766,-225.597,-106.715
60.287,2.24478,-13.4993,11.7188,-285.696,-208.617,-113.843
60.291,1.03122,-14.3191,12.8003,-291.562,-191.249,-122.27
60.296,-0.223661,-15.0123,13.9617,-295.517,-174.569,-130.686
60.301,-1.1574,-15.6519,15.108,-297.774,-160.898,-137.564
60.306,-1.57297,-16.2854,15.9421,-298.712,-150.32,-142.895
60.311,-1.33074,-16.7602,16.5622,-297.005,-140.106,-145.998
60.316,-0.861165,-16.992,17.1765,-292.464,-127.326,-147.028
60.321,-0.889184,-16.9727,17.7026,-286.48,-111.622,-147.255
60.326,-1.5464,-16.4618,18.1003,-280.027,-93.7992,-146.302
60.33,-2.34342,-15.7961,18.5995,-273.031,-74.4269,-144.663
60.335,-3.29895,-14.96,19.386,-264.765,-54.8047,-142.356
60.34,-4.71615,-13.9419,20.3016,-254.757,-37.0025,-139.216
60.345,-6.41946,-12.9517,21.3893,-242.015,-24.2701,-135.178
60.35,-8.19301,-12.1849,22.2586,-225.367,-16.4183,-128.252
60.355,-9.72196,-11.6318,23.0184,-204.585,-10.9629,-117.309
60.36,-11.1657,-11.1092,23.7581,-180.734,-4.76531,-102.436
60.364,-12.6769,-10.1872,24.5388,-155.638,2.29051,-84.7791
60.369,-13.9641,-8.86708,25.1048,-130.466,7.92569,-65.7171
60.374,-14.8147,-7.46704,25.1716,-105.74,12.0273,-47.246
60.379,-14.9699,-6.28923,24.8109,-81.7307,15.9341,-31.0311
60.384,-14.6601,-6.8981,24.8248,-57.071,21.4101,-13.1847
60.389,-14.9333,-5.27496,24.6351,-27.8503,27.9192,4.0532
60.394,-14.8678,-3.94899,23.4334,0.845909,33.6536,17.6423
60.399,-14.1551,-4.06235,22.2028,27.5953,43.3857,27.7494
60.403,-13.6889,-4.83394,21.3589,52.759,56.5455,35.5874
60.408,-13.7097,-6.00312,20.6927,75.6868,68.6063,44.6593
60.413,-12.0102,-8.3649,16.8588,93.8883,74.0401,55.6817
60.418,-2.78867,-14.5125,5.18291,98.9182,62.8212,63.9679
60.423,10.0965,-21.0139,-8.18044,83.5923,32.6149,59.4543
60.428,18.3529,-22.7527,-15.5277,59.9234,-8.20321,51.1062
60.433,23.476,-18.2447,-15.879,51.8871,-37.791,51.5017
60.438,19.606,-9.16694,-10.4124,65.111,-42.7559,56.9208
60.443,9.52806,-1.84404,-1.00551,80.0986,-20.5167,55.1132
60.447,4.36086,-1.72657,6.09604,82.0081,4.82116,48.5475
60.452,4.0225,-5.31752,10.0653,81.7486,19.9787,46.4494
60.458,5.20682,-10.2011,10.844,82.0977,37.1322,47.3265
60.462,4.88671,-13.5728,9.86536,82.0876,57.3892,50.3779
60.468,4.54409,-13.8542,7.96977,84.9884,66.2705,60.292
60.472,4.48252,-12.0571,6.21304,83.549,66.7302,68.1779
60.478,2.80141,-10.2779,6.70263,76.6051,70.0215,69.923
60.482,1.8473,-8.77512,9.66295,72.6181,78.2207,67.7186
60.488,0.807622,-7.6673,12.6969,70.9382,78.9083,64.7728
60.493,-0.641767,-6.20362,12.2678,69.2461,69.0647,65.0998
60.498,-1.76963,-7.13507,9.25255,64.5297,56.0127,68.0357
60.503,-3.36691,-9.75329,5.91941,57.6434,44.722,72.4216
60.507,-5.51907,-12.041,2.31919,51.5907,35.0773,77.849
60.513,-3.93343,-12.2668,2.06665,46.4015,36.3754,73.5137
60.517,-3.32372,-11.0996,6.10152,46.6512,48.7827,62.6899
60.523,-4.22847,-10.2628,7.08819,48.2398,68.6181,54.3608
60.527,-3.47261,-9.65566,3.42116,42.4126,78.2831,48.1128
60.533,-2.01012,-9.70576,1.15783,35.9536,68.1736,46.7856
60.538,-1.32953,-9.25468,2.0624,37.9062,44.3336,50.7545
60.542,-1.0126,-8.41823,3.11135,47.3262,21.8412,58.3556
60.548,-0.961157,-8.62439,2.41949,52.9422,10.7049,64.2326
60.552,-0.129525,-9.67433,0.847034,50.1395,12.9164,63.8647
60.558,1.72891,-10.2085,-0.643605,41.8502,27.7178,56.5103
60.562,2.46004,-9.82517,-0.996035,32.0771,48.8808,44.8626
60.568,1.43257,-9.05383,0.331619,27.6626,63.0891,34.8832
60.572,-1.02509,-8.52054,2.12667,27.258,64.1713,30.5788
60.577,-2.36758,-8.59831,3.23498,27.7217,58.7429,29.6117
60.583,-1.71226,-8.89533,4.11358,29.2215,55.1661,29.0561
60.587,0.148334,-9.71696,4.66089,30.5136,58.0575,27.0047
60.593,0.671157,-9.99424,4.60479,30.2081,58.3021,23.9482
60.597,-0.110813,-9.31422,4.5704,30.067,52.8304,23.0149
60.603,-0.7203,-8.79628,4.85393,32.5787,45.5403,26.2183
60.607,-0.119504,-9.09647,4.39977,36.4051,42.1352,29.2623
60.613,0.0600861,-9.18756,4.33961,37.1694,41.6215,28.7255
60.618,0.766265,-9.25745,4.53404,38.7085,40.9721,27.1107
60.623,0.371534,-9.00819,4.46765,39.9221,38.638,26.8807
60.628,0.148599,-9.00342,3.83301,40.1786,36.8884,27.1367
60.632,0.484483,-8.70502,4.09219,39.7793,34.734,27.2625
60.638,0.189606,-8.43619,4.64324,40.2835,32.4198,28.1409
60.642,0.327209,-8.47607,4.67582,40.2473,29.7436,28.8043
60.647,0.322438,-8.31102,5.12109,39.5455,27.6955,29.4942
60.652,0.225743,-8.44518,5.00122,39.0479,26.1574,29.973
60.657,0.902073,-8.56347,4.54862,37.8045,24.4805,31.0356
60.662,0.381794,-8.67665,4.31477,36.3055,21.8813,32.0756
60.667,0.741415,-8.82554,5.22093,38.2641,18.2084,34.2014
60.672,0.368018,-9.38884,3.27901,39.1559,12.6542,35.9907
60.677,-1.0074,-9.48734,3.30581,34.5566,4.71218,38.416
60.681,-0.0850954,-9.32421,3.38459,36.6142,2.44701,42.1326
60.686,0.225672,-8.79692,3.43578,37.3719,0.95602,43.6389
60.691,-0.254466,-8.52217,3.70702,36.1913,-1.97328,44.3307
60.696,-0.910199,-7.80358,4.00829,35.4759,-4.95722,44.7934
60.701,-1.58163,-7.32149,4.71993,34.7167,-7.59732,44.5801
60.706,-1.07443,-7.3332,5.47568,34.1756,-8.99674,43.3583
60.711,-0.315979,-7.48854,5.50171,35.9175,-7.06128,36.3456
60.716,-0.0589178,-6.80302,6.22099,31.1749,-5.97904,37.0721
60.721,0.496858,-7.07441,6.95999,30.1277,-3.54716,36.2172
60.725,1.25923,-7.22438,6.07797,30.4566,1.07443,30.8332
60.73,0.452155,-7.4229,4.33336,25.8865,7.63726,26.3526
60.735,-0.756928,-7.8711,3.93112,20.9384,10.5909,23.2677
60.74,-1.38375,-8.00708,4.17468,19.2472,10.4254,22.1145
60.745,-1.29561,-8.05974,4.44698,18.5106,9.15222,22.4019
60.75,-0.657494,-8.44781,4.37461,17.5459,7.99392,22.3935
60.755,-0.0965828,-8.8289,4.06307,17.32,8.20791,21.4923
60.76,-0.10063,-9.08688,4.04111,17.3162,10.066,19.3964
60.764,-0.676497,-9.24245,4.34057,17.5309,11.3275,17.2528
60.769,-1.27038,-9.33022,4.4569,17.8127,10.8386,16.3799
60.774,-1.59057,-9.28499,4.43371,17.7555,7.72923,16.6646
60.779,-1.53858,-9.187,4.68466,17.1013,3.49525,17.5015
60.784,-1.22945,-9.27032,5.06624,15.738,2.59617,15.5463
60.789,-0.71934,-9.36869,5.22772,12.7416,5.74526,10.6047
60.794,-0.537049,-9.01314,5.45855,10.2401,7.341,8.22927
60.798,-0.58176,-8.74895,5.45526,10.8719,4.49319,9.49462
60.803,-0.594866,-8.77816,5.037,11.2502,0.448736,11.5232
60.808,-0.677058,-8.59129,4.96442,11.3357,-5.15162,14.256
60.813,-0.637033,-8.31554,5.08216,11.5547,-10.5272,17.6785
60.818,-0.452898,-8.11175,5.39389,11.8266,-14.8128,20.3626
60.823,-0.387653,-8.04373,5.54098,12.0542,-18.2266,21.9338
60.828,-0.698198,-8.00528,5.41383,11.2936,-21.443,22.8323
60.833,-1.16288,-8.05326,4.94404,10.2536,-23.698,22.6072
60.837,-1.60152,-8.15773,4.7119,8.41561,-21.8267,19.1223
60.843,-1.48101,-8.04006,4.71808,6.2516,-17.5412,13.7789
60.847,-1.45356,-7.67918,4.84101,5.59708,-16.3669,10.8487
60.853,-1.21132,-7.55768,4.50484,6.54532,-17.961,10.4557
60.857,-0.712055,-7.7537,3.82058,8.21676,-18.2818,10.4153
60.863,-0.644889,-8.00613,3.35061,9.97235,-18.0616,9.92837
60.868,-0.0633322,-8.25025,2.80559,10.0555,-13.9127,10.1155
60.873,0.551718,-9.44365,0.367054,6.36514,0.0728373,5.30863
60.878,0.295848,-9.72104,-0.836957,3.58308,13.8916,-0.980887
60.882,0.0357623,-9.7132,-0.0672225,2.9298,25.4077,-2.99342
60.888,-0.0511049,-9.3513,2.03954,5.34523,30.2468,-2.62339
60.892,-0.180314,-8.85894,4.28195,9.45105,31.3393,-2.15302
60.898,0.173841,-8.70997,5.15184,12.4735,31.558,-1.5772
60.902,0.661668,-8.34413,4.93866,12.8511,32.8043,-0.830285
60.908,0.505811,-7.97987,4.52828,12.0259,35.2481,-0.894685
60.913,0.0507616,-7.92625,4.3949,12.2037,38.1213,-1.96839
60.917,-0.0923856,-7.95416,4.46179,12.3529,40.6905,-2.18109
60.923,-0.212015,-7.95677,4.49763,11.3505,42.9306,-2.15023
60.927,-0.545052,-7.92229,4.23115,10.4099,44.3956,-2.99691
60.933,-0.979556,-7.84642,3.88897,9.33037,46.4934,-4.19584
60.937,-1.32779,-7.97572,3.86705,8.50695,48.0495,-5.80256
60.943,-1.36207,-8.0022,4.04129,8.55687,47.9015,-7.08198
60.947,-1.16294,-8.26984,4.12182,6.16901,52.4332,-11.3765
60.952,-1.18518,-8.65447,4.33842,1.44357,62.9649,-20.605
60.958,-1.57777,-8.56519,4.84861,0.0425968,63.5923,-24.2552
60.962,-1.88452,-8.70207,5.35108,-0.0146546,58.8506,-21.9853
60.968,-1.51769,-8.84053,4.93947,0.173954,53.563,-20.9733
60.972,-1.37132,-8.70716,4.89228,-0.637975,49.9343,-20.3087
60.978,-1.73299,-8.67134,5.15235,-1.79881,49.4969,-21.7999
60.982,-1.84665,-8.70402,5.37746,-2.85607,51.6682,-24.599
60.988,-1.66772,-8.67405,5.4429,-4.15789,53.7034,-26.6583
60.993,-1.65683,-8.6197,5.22338,-5.01824,52.1084,-26.3501
60.998,-1.63549,-8.72264,4.82506,-4.3998,48.002,-23.8509
61.003,-1.37824,-8.89763,4.49063,-2.74808,44.56,-21.4114
61.007,-1.22615,-9.11186,4.38607,-1.80193,43.1733,-20.035
61.013,-1.24234,-9.06215,4.60956,-1.62635,42.4434,-20.2523
61.017,-1.16146,-8.83071,4.96022,-1.08381,40.9656,-19.8215
61.023,-1.02673,-8.78824,4.89955,0.215939,39.2049,-18.5482
61.027,-0.998758,-8.84602,4.67769,1.45867,37.2095,-16.9442
61.033,-0.955685,-8.83988,4.52235,2.72017,34.6122,-15.2233
61.038,-0.975952,-8.73169,4.66992,4.16617,31.0358,-13.2188
61.042,-0.885156,-8.72903,4.80156,5.59032,27.8101,-10.9356
61.047,-0.743771,-8.78432,4.78674,6.3433,25.7635,-9.45254
61.052,-0.855586,-8.64316,4.84374,6.81007,23.3944,-8.21405
61.057,-0.998696,-8.51492,4.85166,7.48328,21.3115,-6.33101
61.062,-0.877505,-8.41555,4.69112,7.49371,20.0574,-4.887
61.067,-1.06832,-8.23174,4.60026,6.91324,20.1199,-4.50338
61.072,-0.847322,-8.16359,4.66292,5.3911,21.7512,-4.08174
61.076,-0.956657,-8.58658,3.99101,4.14588,25.7916,-4.87711
61.081,-1.24159,-8.00302,4.69023,3.54309,25.5407,-6.61273
61.086,-1.27609,-7.97577,4.96357,3.33637,26.1395,-6.45998
61.091,-0.946088,-8.19099,4.60786,2.47059,27.341,-6.63563
61.096,-0.766969,-8.34557,4.51847,0.261363,27.5005,-7.27592
61.101,-0.520641,-8.46127,4.64336,-0.748688,27.3684,-7.44267
61.106,-0.368714,-8.50708,4.61322,-1.10694,27.187,-7.36283
61.111,-0.147373,-8.59562,4.55942,-1.91082,23.7865,-6.70387
61.116,0.0470583,-8.67053,4.50004,-2.37013,19.8875,-5.25758
61.12,0.312103,-8.76036,4.40513,-2.268,17.4131,-3.51455
61.125,0.397486,-8.76978,4.14792,-2.54858,15.91,-2.63537
61.13,0.109758,-8.76516,4.08293,-3.49724,14.5787,-2.35822
61.135,0.0796835,-8.8009,4.25133,-4.06439,12.7024,-1.79358
61.14,-0.27666,-8.68896,4.53982,-4.23881,12.0699,-1.86694
61.145,-0.830415,-8.4116,4.86387,-4.84034,12.3286,-2.15907
61.15,-1.09923,-8.35576,5.0295,-5.68895,12.624,-2.63684
61.155,-1.32513,-8.47379,5.06589,-5.70916,12.9722,-3.10298
61.159,-1.09554,-8.65812,4.98532,-5.08607,10.7468,-3.72969
61.164,-0.575084,-8.59886,4.49652,-4.80412,8.36995,-3.71166
61.169,-0.270415,-8.55153,3.94607,-5.80695,7.68456,-3.79666
61.174,-0.198909,-8.69705,3.86308,-6.26519,7.81525,-3.78305
61.179,-0.202076,-8.70226,4.21431,-6.34306,7.82742,-4.05826
61.184,-0.379076,-8.57828,4.51845,-6.39239,7.14086,-3.50619
61.189,-0.426234,-8.55001,4.50649,-6.09082,5.8796,-2.59156
61.194,-0.401911,-8.54841,4.45082,-5.96006,3.70917,-1.70944
61.198,-0.472153,-8.58346,4.33423,-5.77054,2.0777,-0.738884
61.203,-0.4719,-8.6826,4.2639,-6.00923,1.13455,-0.266414
61.208,-0.63798,-8.57373,4.28596,-6.13232,0.914272,-0.10598
61.213,-0.673079,-8.52585,4.25552,-6.56347,0.721989,0.0887081
61.218,-0.594445,-8.63615,4.31019,-6.28137,1.21985,0.152758
61.223,-0.763649,-8.71558,4.3811,-5.83636,0.204029,-0.0181171
61.228,-0.581757,-8.57457,4.38263,-4.54128,-1.48294,0.934977
61.232,-0.0501922,-8.62269,3.81686,-4.56826,-2.41868,1.34787
61.238,0.340681,-8.41685,4.60346,-4.51713,-2.68653,1.80883
61.243,1.91028,-8.05308,6.18319,1.89311,-6.12519,3.21338
61.248,-4.18971,-7.7922,3.91685,-2.73571,-3.12575,6.33423
61.253,-2.08124,-9.12995,3.18035,-10.6345,-11.5008,9.67369
61.257,0.772518,-9.20828,3.5858,-2.05668,-19.7414,12.743
61.263,-0.91824,-8.61062,3.90367,-3.1529,-12.1798,9.97683
61.267,-0.475877,-8.14341,4.70956,-5.19938,-10.0808,8.78087
61.273,0.0322448,-8.62285,4.08036,-2.16375,-15.3719,12.3441
61.277,1.73943,-9.40758,1.57931,-3.39275,-3.10405,5.62773
61.283,-1.24308,-8.21412,6.08671,-6.2838,7.46502,-2.14192
61.288,-0.19723,-8.51741,4.23494,-4.99823,-0.53613,3.55615
61.292,0.794782,-9.12833,2.81606,-5.38581,0.135713,3.76323
61.298,-0.694916,-8.83882,4.57079,-7.62709,5.4708,-0.848481
61.302,-1.20844,-8.26039,5.46298,-5.8204,-0.971801,1.95569
61.308,-1.82067,-8.69557,4.36662,-4.48388,-10.5502,8.63884
61.312,-1.64196,-8.87765,4.3558,-5.95435,-12.2828,11.0762
61.318,-1.46493,-8.30076,4.15385,-6.02128,-11.1619,10.1025
61.322,-1.63802,-8.48744,4.28591,-5.99142,-11.9137,10.115
61.327,-0.967709,-8.76108,3.8122,-6.54245,-14.5924,11.2622
61.333,-0.410937,-8.74719,3.45664,-7.21415,-17.3416,12.0344
61.337,-0.763779,-8.9546,3.94353,-6.44814,-21.6845,12.4647
61.343,-0.945189,-8.99048,4.56052,-4.86229,-26.9333,13.0695
61.347,-1.00904,-8.83309,4.87343,-4.15988,-32.1148,14.4824
61.353,-0.986898,-8.94092,4.74237,-4.45695,-35.4343,15.8272
61.357,-0.866866,-8.97904,4.35935,-5.10929,-38.0545,16.559
61.363,-0.908922,-8.9586,4.14375,-5.78791,-40.1996,17.3193
61.368,-0.967054,-9.02071,4.2435,-5.9111,-42.3586,18.3009
61.373,-0.775468,-8.81427,4.41514,-5.20029,-45.6452,20.4177
61.377,-0.442317,-8.7449,4.376,-4.94531,-49.0246,23.404
61.382,0.0706455,-8.99009,3.74411,-4.7991,-52.1656,27.2843
61.388,0.23976,-9.33276,2.93324,-3.86205,-54.6795,31.2394
61.393,0.0454274,-9.62404,2.38788,-2.63252,-55.688,34.4203
61.397,-0.321257,-9.72098,2.25044,-0.582417,-55.5625,37.0944
61.402,-1.04441,-9.73112,2.57464,2.82545,-53.6134,39.5058
61.408,-1.50425,-9.64054,3.04231,5.64161,-51.129,40.9441
61.412,-1.76785,-9.36274,3.63696,8.57415,-48.0763,41.1158
61.417,-2.11121,-9.39364,4.38074,12.5115,-45.5485,41.2913
61.423,-1.86958,-9.63579,4.20817,15.8797,-44.6227,41.2456
61.428,-1.60639,-9.66083,3.47185,19.0152,-43.2016,41.7478
61.432,-1.24273,-9.8369,2.62713,22.8432,-39.9074,42.3807
61.437,-1.06849,-9.68369,2.49007,27.5841,-35.3393,42.3516
61.442,-0.986436,-9.49223,3.24231,33.3172,-30.4637,42.9486
61.447,-0.98503,-9.66067,3.68272,38.7031,-26.293,44.9122
61.452,-0.808977,-9.9969,3.8592,43.8248,-24.0034,47.0161
61.457,-0.466602,-9.90988,3.35931,48.9615,-22.0898,49.1262
61.462,0.244758,-10.2161,3.07651,54.2053,-20.1055,52.2513
61.467,0.535534,-10.5292,2.49065,60.0444,-17.3678,56.9604
61.472,0.776744,-11.0537,2.50222,65.6658,-14.5108,62.2238
61.476,0.345283,-11.3673,2.73578,72.4852,-11.2119,68.5483
61.481,0.060244,-11.57,3.24833,80.0213,-10.3745,74.737
61.486,0.154326,-11.9435,4.33118,87.218,-10.9496,81.4195
61.491,0.828794,-12.035,4.84699,93.6519,-11.0134,87.8938
61.496,0.585578,-12.6001,4.5551,96.8209,-8.55945,93.8333
61.501,-0.278161,-14.0315,4.21241,97.1087,-5.56479,101.045
61.506,1.3684,-14.5077,5.51436,103.633,-4.51801,103.726
61.511,2.59859,-13.6408,7.01054,112.568,-3.44374,101.096
61.515,2.36163,-13.8139,8.21296,117.937,-1.07318,100.9
61.52,1.95388,-15.0311,9.28684,124.278,1.78459,103.28
61.525,2.24309,-16.1562,9.7426,130.859,2.43619,105.927
61.53,2.81033,-16.9457,9.50577,137.143,0.296666,109.482
61.535,2.92609,-17.3244,8.6627,142.512,-3.21582,114.305
61.54,3.18137,-17.7095,7.76506,145.907,-6.47202,121.403
61.545,4.52789,-18.0583,7.28043,149.244,-7.76621,129.849
61.549,5.83852,-18.426,7.52965,153.27,-6.58746,136.924
61.554,6.72851,-18.541,8.73978,159.188,-3.4545,143.213
61.559,7.68832,-18.2534,9.95864,165.263,0.077089,147.985
61.564,8.68858,-17.8884,10.531,169.008,2.81393,151.69
61.569,9.95613,-17.5777,10.3337,170.028,6.03076,153.777
61.574,10.3731,-17.1315,9.64808,169.339,11.0419,153.395
61.579,9.31254,-16.696,9.17707,168.22,20.5717,152.293
61.584,7.86966,-17.0377,8.30077,167.369,34.5657,153.762
61.589,7.63925,-17.7467,5.9115,163.704,47.8248,156.522
61.593,7.22992,-18.4121,3.52484,153.973,54.9921,157.224
61.598,5.50745,-18.3293,2.88558,143.028,58.5546,154.415
61.603,3.93522,-17.5703,2.74679,133.68,61.7874,152.424
61.608,2.66928,-16.1407,3.10767,125.543,64.7658,153.708
61.613,1.3399,-15.0081,4.01096,115.738,70.3754,152.074
61.618,-0.321164,-12.32,6.0297,103.283,76.8596,143.202
61.623,-2.50087,-8.08675,7.21733,88.1211,74.9111,143.29
61.627,-3.93678,-6.20487,6.36308,74.2726,69.6257,154.758
61.632,-4.76666,-5.30751,6.08734,65.5871,65.4507,161.078
61.638,-5.05126,-4.43213,6.46581,60.5515,59.958,162.259
61.643,-4.64845,-4.36173,6.46331,56.0795,52.1279,162.149
61.647,-4.04639,-4.8221,3.70185,47.4467,39.2754,157.756
61.652,-3.10981,-4.40117,-0.705498,29.9745,14.7609,145.385
61.658,-0.0929506,-4.28118,-2.34091,11.1163,-21.2388,133.411
61.662,3.12215,-5.02387,-2.53027,-1.75857,-54.5943,129.148
61.667,4.57251,-4.72283,-2.85931,-9.375,-75.5562,125.732
61.673,3.96799,-3.71465,-2.94852,-11.2248,-94.6105,123.788
61.678,4.23435,-1.89827,-2.95835,-12.4427,-126.278,121.08
61.682,5.33838,-0.673412,-4.44237,-20.407,-154.615,115.446
61.687,6.55947,-1.58825,-6.16473,-38.936,-158.958,106.459
61.693,8.05513,-3.01525,-6.35683,-58.9746,-156.362,93.3478
61.698,9.8535,-3.52785,-5.22159,-72.8912,-164.825,78.8541
61.702,11.2634,-3.32631,-3.89597,-82.6656,-180.933,66.7477
61.708,11.7606,-2.57118,-2.97704,-90.7745,-193.541,58.4946
61.713,11.3146,-1.86629,-2.31504,-99.497,-198.951,51.8975
61.717,10.4893,-1.49362,-1.7368,-109.642,-200.32,45.6252
61.722,9.87757,-1.37986,-0.912826,-120.837,-201.602,38.7598
61.728,9.31129,-1.36961,-0.0138689,-132.659,-205.552,32.0213
61.733,8.61273,-1.48904,0.79143,-144.26,-211.258,25.2242
61.737,7.90898,-1.60608,1.37735,-154.571,-217.269,18.5359
61.743,7.34816,-1.65631,1.70908,-163.709,-223.247,12.1396
61.748,6.88286,-1.9062,1.82543,-172.833,-228.871,5.59234
61.752,6.55042,-2.26611,1.92904,-181.923,-233.736,-1.93254
61.757,6.11487,-2.57053,2.10997,-191.06,-238.357,-9.5276
61.763,5.64777,-2.81405,2.42681,-199.747,-243.812,-15.8797
61.768,5.23611,-3.18163,2.72884,-207.46,-250.195,-20.7609
61.772,4.91143,-3.73015,2.88567,-214.561,-256.831,-24.5006
61.777,4.85192,-4.19641,2.91054,-220.836,-263.464,-27.5538
61.783,4.78955,-4.67517,2.89425,-226.672,-268.891,-30.1491
61.787,4.67172,-5.18599,2.95171,-233.305,-272.151,-33.3033
61.792,4.62508,-5.78445,3.08927,-239.978,-275.291,-37.0233
61.798,4.39202,-6.32994,3.44443,-245.972,-277.699,-41.1181
61.803,4.19401,-6.9566,3.93375,-251.696,-280.137,-44.818
61.807,4.07513,-7.67946,4.53027,-256.166,-285.028,-48.1827
61.812,4.22891,-8.39071,5.41029,-259.122,-293.359,-49.9079
61.818,4.68572,-9.10957,6.51228,-260.159,-304.566,-50.3
61.823,5.13494,-9.67745,7.54234,-260.233,-314.714,-50.0782
61.827,5.23209,-10.3271,8.75876,-260.54,-321.288,-48.9835
61.832,5.57784,-10.6667,10.063,-258.246,-329.073,-47.5537
61.837,5.65286,-10.6038,11.1472,-257.17,-332.305,-46.0113
61.842,5.44297,-10.3784,11.9262,-259.758,-330.21,-46.189
61.847,4.63011,-10.3832,12.0794,-263.614,-326.85,-46.5324
61.852,3.87995,-10.9339,11.8084,-266.129,-322.82,-44.2751
61.857,3.90935,-11.725,11.78,-266.776,-316.84,-43.0153
61.862,3.51833,-12.8578,12.4576,-268.699,-306.832,-45.101
61.867,2.41376,-13.6804,13.5825,-271.119,-293.481,-50.038
61.871,1.19371,-13.8751,14.8464,-271.973,-280.117,-55.472
61.876,0.0802398,-14.2018,16.1095,-272.953,-267.803,-59.9827
61.881,-0.594739,-14.5948,17.4356,-273.317,-259.268,-61.9655
61.886,-0.747799,-14.9946,17.9902,-270.968,-252.951,-61.335
61.891,-0.945344,-15.3296,18.1003,-266.681,-244.617,-60.2572
61.896,-1.3353,-15.5908,18.4339,-261.592,-234.546,-59.8025
61.901,-1.94989,-15.7352,19.1272,-254.541,-225.705,-58.0905
61.906,-2.63262,-15.3096,20.0222,-243.922,-219.298,-52.7574
61.91,-3.17488,-14.3056,20.5218,-231.829,-213.866,-45.1231
61.915,-3.3948,-12.6061,20.5361,-220.282,-208.092,-38.3215
61.92,-3.34356,-10.7946,20.1832,-208.872,-200.736,-34.3745
61.925,-3.22589,-9.69092,19.9045,-194.814,-190.907,-32.3404
61.93,-3.39352,-9.30104,19.9904,-177.11,-178.222,-31.0623
61.935,-4.01355,-9.39327,20.558,-156.571,-163.96,-29.3925
61.94,-5.13088,-9.54863,21.186,-136.482,-150.971,-25.7301
61.944,-6.50228,-9.44373,21.4586,-118.032,-140.475,-20.1983
61.949,-7.89695,-8.92132,21.6415,-100.409,-132.143,-12.9317
61.954,-8.97118,-8.10807,21.7626,-82.7742,-125.644,-3.85371
61.959,-9.43863,-7.26057,21.6891,-63.887,-119.197,6.85671
61.964,-9.34092,-6.43223,21.644,-44.2356,-110.915,18.2586
61.969,-8.87482,-5.66003,21.4581,-24.766,-100.773,28.6839
61.974,-8.31453,-5.0831,21.2295,-5.24445,-88.4848,37.4976
61.979,-7.84156,-4.81491,20.9366,14.3723,-74.803,44.072
61.984,-7.52488,-4.76912,20.5462,33.6913,-61.0219,48.9754
61.988,-7.13684,-5.00761,20.0063,52.2869,-47.9355,53.1593
61.993,-6.35962,-9.31075,19.1848,67.7421,-34.6979,59.6463
61.998,-2.73208,-12.3753,16.339,81.731,-20.2375,69.8914
62.003,1.05302,-8.83289,11.981,94.7528,-6.42848,66.4259
62.008,0.0917446,-8.27484,8.19745,93.5231,9.49802,60.413
62.013,-0.542434,-10.1318,2.67938,86.1856,19.7937,56.38
62.018,1.74449,-13.7646,-3.60775,77.5887,16.185,54.7678
62.022,7.28806,-17.6044,-9.87471,66.6506,1.3507,54.7558
62.027,13.4018,-18.7898,-15.154,52.4747,-20.1184,53.2277
62.033,17.1584,-16.3109,-17.3458,40.7033,-37.4171,48.8215
62.037,17.2256,-11.9763,-15.571,37.7812,-37.0673,40.4187
62.042,12.9951,-7.34442,-9.15183,39.9828,-17.7629,26.0724
62.048,6.1101,-4.19597,-0.744887,40.5671,5.65654,12.7446
62.053,1.32871,-3.9859,5.52605,41.1828,20.5345,7.21905
62.057,-0.706693,-5.8384,8.63741,43.3902,26.9616,9.42379
62.062,-0.700435,-8.34681,8.61706,46.9603,30.6661,16.3202
62.068,0.796756,-10.5218,6.07984,49.1692,35.3918,22.3204
62.073,2.82741,-11.6822,2.33083,46.579,38.699,22.9695
62.077,4.68242,-11.8881,-0.235281,41.9351,40.2853,19.1694
62.083,5.70029,-11.5858,-0.810527,38.6506,45.9381,14.7045
62.088,5.36888,-10.5737,1.12646,38.2912,56.0823,11.1268
62.092,3.67008,-9.58155,4.3015,39.4636,68.2583,8.68106
62.097,1.46162,-9.01232,7.01127,40.0475,77.7007,7.74272
62.103,0.14025,-9.36218,8.02825,39.4882,80.7486,10.0121
62.108,-0.0133379,-10.0168,7.61677,38.579,77.4989,15.2555
62.112,0.472028,-10.36,6.20229,38.6708,72.6916,20.986
62.118,0.874804,-10.0633,4.69178,38.3053,69.7993,24.9545
62.123,1.07983,-9.60309,3.80428,37.4898,68.9487,27.0156
62.127,0.826811,-9.37356,3.71397,37.5678,68.6138,28.7518
62.132,0.454835,-9.27414,3.94046,38.0627,67.0604,31.3179
62.138,0.11771,-9.11296,3.86664,38.674,64.1366,33.4384
62.143,-0.495825,-8.96412,3.47636,38.3877,59.9872,34.9058
62.147,-1.01179,-8.90926,2.99909,37.929,54.6242,35.9217
62.152,-1.30479,-8.79533,2.73754,37.7602,48.3713,36.356
62.158,-1.47039,-8.79519,2.76741,37.7254,42.1887,36.5253
62.162,-1.73837,-8.90725,2.9838,38.1475,37.187,36.9018
62.167,-2.30088,-9.2399,2.98481,37.6345,33.0994,37.2586
62.173,-2.09459,-9.43904,3.09928,36.3706,31.4134,36.6211
62.178,-1.8298,-9.66182,3.47766,35.3597,32.7613,34.2596
62.182,-1.64845,-9.8271,3.63043,34.7762,36.4663,30.7716
62.187,-1.32569,-9.8076,3.37638,33.5013,39.7599,26.8384
62.193,-1.20097,-9.74858,3.40001,32.1975,40.504,23.4231
62.198,-1.24169,-9.63751,3.58323,31.148,37.4606,21.6903
62.202,-1.31974,-9.39965,3.76243,30.8741,32.1722,21.3713
62.208,-1.32712,-9.29682,4.07289,31.0751,26.6814,21.4639
62.213,-1.23001,-9.30868,4.29877,31.5526,22.5462,21.9579
62.217,-0.953118,-9.36929,4.10727,31.1853,19.1097,21.7878
62.222,-0.69623,-9.29278,3.83721,29.8923,17.3917,20.4804
62.227,-0.422092,-9.14965,3.74473,28.3842,16.623,18.9645
62.232,-0.296799,-9.06061,3.84283,27.317,15.9496,17.9643
62.237,-0.281503,-8.96086,3.95871,26.4817,14.306,17.6676
62.242,-0.359941,-8.86937,4.17721,25.8056,11.6814,18.1894
62.247,-0.33034,-8.95175,4.20344,25.4809,8.58346,19.2135
62.252,-0.28581,-9.02089,3.96045,24.3825,6.14687,20.1338
62.257,-0.352155,-8.99283,3.60548,23.1448,4.92172,20.335
62.262,-0.348015,-9.00879,3.38264,22.3581,4.11925,20.4408
62.266,-0.225966,-9.06809,3.07778,21.9996,3.25777,20.7478
62.271,-0.151206,-9.09895,2.81944,21.455,3.07103,20.3522
62.276,-0.162088,-9.06937,2.70591,21.0105,3.25229,19.7957
62.281,-0.0908177,-9.14108,2.80794,21.0894,2.50701,19.4831
62.286,-0.155012,-9.34244,2.96696,22.5176,0.687466,19.892
62.291,-0.117292,-9.29355,2.82248,24.0419,-1.16744,20.326
62.296,-0.260416,-9.01191,2.55994,23.7557,-1.49,20.0814
62.3,-0.469667,-8.89976,2.60074,23.9446,-1.96426,20.3183
62.305,-0.48599,-8.898,2.69998,24.4178,-3.72952,20.9049
62.31,-0.429136,-8.93032,2.81949,24.6597,-5.05258,21.2246
62.315,-0.399222,-9.00639,2.94577,25.1269,-6.06161,22.0087
62.32,-0.296457,-9.17099,2.80954,26.0874,-6.66683,22.6577
62.325,-0.0976,-9.28359,2.53053,26.8973,-7.22013,23.2162
62.33,0.341166,-9.51203,2.05422,27.1458,-7.00323,23.7511
62.335,0.725693,-9.57248,1.66124,27.3058,-5.26404,23.661
62.34,0.719343,-9.26684,1.62771,27.5314,-2.33119,23.0772
62.344,0.386922,-9.10209,1.8066,28.1921,0.567838,22.4096
62.349,-0.0143534,-9.02196,2.34859,29.1923,2.99151,22.1391
62.354,-0.276229,-9.02263,3.03241,30.0452,4.45972,21.9763
62.359,-0.406229,-8.98405,3.41932,31.0872,5.50442,22.1203
62.364,-0.48033,-9.1477,3.48404,31.8304,5.74945,23.1661
62.369,-0.434792,-9.23005,3.3804,32.6162,4.76764,24.836
62.374,-0.121465,-9.25625,2.92517,33.4142,3.20938,26.9776
62.379,0.0552716,-9.1823,2.64474,33.9962,3.07767,28.4044
62.383,0.0293491,-9.10718,2.64051,34.8506,3.54067,29.1848
62.388,-0.264885,-9.11028,2.9244,35.8541,3.69815,29.7065
62.393,-0.671779,-8.91232,3.45621,36.7546,3.28709,30.8548
62.398,-0.616944,-8.73241,3.8109,37.4587,1.91408,32.4356
62.403,-0.394005,-8.72145,3.84392,37.3002,0.735144,34.039
62.408,-0.427446,-8.5368,3.80206,37.3199,1.22141,35.2326
62.413,-0.611507,-8.48422,3.80228,37.1136,1.92165,35.525
62.417,-0.789256,-8.54892,3.93788,36.9883,2.86101,35.6968
62.423,-0.752547,-8.59086,3.90121,36.9715,3.18851,36.3658
62.428,-0.642583,-8.70305,3.71853,37.202,3.5301,37.2902
62.432,-0.533549,-8.91422,3.57423,37.4014,4.36982,37.8531
62.437,-0.682235,-8.95529,3.51676,37.2562,4.44951,38.2225
62.443,-0.868242,-8.96837,3.50187,37.2156,4.7726,38.6814
62.448,-0.852058,-8.90047,3.52368,37.079,5.18179,39.1849
62.452,-0.848153,-8.84388,3.69185,36.6379,5.97168,39.4665
62.458,-1.08669,-8.8205,3.98557,36.4621,6.02156,39.911
62.463,-1.11756,-8.78314,4.15532,36.0042,5.5736,40.2914
62.467,-1.20841,-8.89781,4.25986,35.4914,4.99016,40.3971
62.472,-1.21898,-8.83783,4.33775,35.105,3.67019,40.6104
62.478,-1.08687,-8.78937,4.41086,34.5146,3.14955,40.5108
62.483,-0.828743,-8.83444,4.40489,33.8184,3.74791,40.6125
62.487,-0.943999,-8.71044,4.23158,32.827,5.2087,40.8358
62.493,-0.984936,-8.90368,3.9786,32.0666,5.49644,41.4833
62.498,-0.92384,-9.13236,3.78442,31.8732,5.09239,42.6842
62.502,-0.844208,-9.20124,3.75459,31.9658,4.96018,44.0599
62.507,-0.846942,-9.06697,3.79105,32.6786,5.85558,44.9536
62.513,-0.841126,-9.02613,3.89532,33.3383,7.5997,45.7646
62.518,-0.800562,-9.04746,3.91902,34.0869,9.81112,46.4494
62.522,-0.987068,-9.04932,3.73694,34.6546,12.0956,47.1884
62.527,-1.13075,-9.17149,3.46624,35.3384,13.8948,48.2792
62.533,-1.38954,-9.44213,3.19497,36.2466,15.8559,49.6252
62.537,-1.61376,-9.88549,2.93179,37.6862,17.1186,51.2094
62.542,-2.05652,-10.5148,2.76682,38.3643,17.8367,53.4587
62.548,-2.23035,-9.92475,3.21392,41.0942,17.1797,54.5116
62.553,-2.03582,-9.34672,3.69756,43.9248,15.12,53.809
62.557,-1.77016,-10.0338,4.26654,47.0752,13.5971,55.4357
62.562,-1.87808,-10.0961,4.79783,50.803,13.3257,57.6446
62.568,-1.60587,-9.56222,4.49694,52.2804,12.1927,57.5013
62.573,-1.19186,-10.2185,5.01789,53.5385,11.8109,58.3602
62.577,-0.963231,-10.0196,5.34972,56.2013,11.9013,59.8307
62.583,-0.70919,-10.0901,5.60086,58.0045,12.437,60.9279
62.588,-0.563021,-10.3223,5.74789,59.9678,13.4531,62.529
62.592,-0.308878,-10.6133,5.73638,60.9333,14.1342,63.0439
62.597,-0.286763,-10.9573,6.00277,62.8339,15.4667,64.1489
62.603,-0.346109,-11.146,6.16097,65.2811,16.405,65.2712
62.608,-0.439452,-11.3817,6.29062,67.6196,16.9523,67.5847
62.612,-0.598897,-11.3239,6.12374,69.723,16.9091,70.1144
62.618,-0.475381,-11.6067,5.80116,70.718,17.3502,72.8303
62.622,-0.327157,-11.7921,5.61287,72.72,18.9309,75.5147
62.627,-0.450947,-11.8256,5.48286,74.7702,20.3659,77.6646
62.632,-0.44988,-12.126,5.56699,76.8664,20.8255,80.043
62.637,-0.510808,-12.3914,5.93575,79.657,21.369,82.8373
62.642,-0.390682,-12.6763,6.29285,83.5695,20.4757,86.5635
62.647,-0.204621,-12.9021,6.43518,87.0988,19.1433,89.8104
62.652,0.122787,-12.9697,6.54994,90.1263,18.3362,92.4647
62.657,0.403992,-12.9274,6.73992,92.7119,17.9614,94.1663
62.661,0.654661,-12.9057,6.9366,95.6992,17.2217,96.1853
62.666,0.855844,-12.7927,7.12584,98.7965,16.1743,99.1204
62.671,0.978622,-12.7018,7.29377,101.295,14.6843,103.125
62.676,1.25367,-12.764,7.29181,103.944,12.4121,107.378
62.681,1.71932,-13.0659,7.24544,107.063,10.0113,111.723
62.686,2.26307,-13.6564,7.24923,111.005,8.16357,115.182
62.691,2.54215,-14.1388,7.46446,115.595,6.49,118.032
62.695,2.9476,-14.7003,7.71156,120.183,3.83457,121.436
62.7,3.52309,-15.2424,7.69683,125.059,-0.815032,125.806
62.705,4.17708,-15.7652,7.43342,129.871,-6.55756,130.809
62.71,4.66666,-16.3174,7.20037,134.307,-11.5741,136.195
62.715,5.15735,-16.8043,6.91567,138.845,-15.1883,141.681
62.72,4.75053,-17.0311,7.06109,142.825,-16.8447,147.615
62.725,4.32763,-17.1578,7.14222,146.15,-17.2397,154.129
62.73,4.04705,-17.1223,6.52737,147.536,-17.4035,161.283
62.735,3.30202,-17.1886,5.34363,145.732,-16.5739,168.421
62.739,2.47181,-17.5287,4.3089,142.468,-12.4726,173.777
62.744,1.79156,-17.872,3.66928,140.006,-5.42992,177.1
62.749,1.11016,-17.8678,3.39273,137.018,3.97202,178.659
62.754,0.554085,-17.179,3.76962,133.097,13.3482,178.586
62.759,-0.0161467,-15.7823,4.04697,127.133,20.3629,177.836
62.764,-0.417973,-14.2584,4.3694,119.685,23.8913,175.945
62.769,-0.714888,-12.7924,4.41946,112.256,24.5218,173.757
62.773,-1.10643,-11.4231,4.20951,103.312,23.8807,170.844
62.778,-1.39874,-9.92401,4.46162,93.3408,20.3204,164.668
62.783,-1.41092,-8.5107,5.10976,84.3284,12.6186,157.443
62.788,-1.6106,-7.24343,5.70145,78.9736,1.33052,152.327
62.793,-2.51798,-6.88961,6.23091,77.543,-12.5142,150.332
62.798,-2.21695,-6.86285,6.18517,79.5929,-30.4718,152.003
62.803,-0.383932,-6.92168,5.37501,77.5499,-46.882,157.58
62.808,0.871693,-6.74835,4.89252,69.704,-53.2475,163.673
62.812,0.738493,-5.78868,5.1129,58.6578,-50.067,164.395
62.817,-0.695725,-4.10748,5.10339,47.1586,-47.1567,158.221
62.822,-3.34336,-1.75017,4.9636,35.0901,-50.9025,148.882
62.827,-5.50308,-0.00310978,4.46966,20.1731,-57.7886,139.221
62.832,-4.24934,-1.43386,3.17203,4.21703,-60.5996,137.005
62.837,-1.16267,-3.71168,2.59517,-3.16491,-61.6083,139.847
62.842,0.112559,-3.50358,3.27614,-3.12375,-71.7687,131.224
62.847,-2.11226,-0.871614,2.36175,-13.8133,-100.415,107.425
62.852,-2.908,1.01145,0.0431943,-42.4578,-130.287,89.7614
62.856,-0.373818,-0.217937,-1.0416,-64.0217,-136.411,88.2145
62.861,3.10102,-2.75939,-1.42019,-73.9762,-132.589,86.7058
62.866,5.48342,-3.86915,-1.15968,-81.1243,-131.413,76.7067
62.871,7.30651,-3.82419,-0.701517,-87.4571,-130.936,61.4509
62.876,8.78275,-2.94387,-0.630864,-93.8233,-130.248,42.7893
62.881,9.11198,-1.87487,-0.412191,-102.032,-126.49,24.8391
62.886,8.46681,-1.07983,0.348376,-111.073,-120.652,11.1957
62.89,7.80106,-0.72769,0.995297,-118.788,-116.232,2.15002
62.895,7.6978,-0.587675,1.48005,-124.79,-113.205,-5.35781
62.9,7.73316,-0.697053,2.02398,-130.756,-109.95,-14.1512
62.905,7.17944,-0.961749,2.39838,-137.74,-106.53,-24.287
62.91,6.43361,-1.33209,2.58239,-145.948,-104.079,-33.7675
62.915,5.8045,-1.60265,2.92369,-150.787,-106.622,-41.7153
62.92,5.06048,-2.13801,3.37819,-153.381,-113.249,-47.8805
62.925,4.62734,-2.81387,3.61954,-156.833,-120.537,-53.6152
62.93,4.2785,-3.25742,3.73791,-161.699,-127.264,-59.805
62.934,3.96077,-3.55163,3.87745,-166.971,-133.4,-66.4225
62.939,3.7786,-3.66696,3.87821,-171.548,-140.132,-72.3967
62.944,3.51695,-3.88184,3.83438,-175.743,-146.524,-77.2853
62.949,3.35,-4.0362,3.88434,-179.567,-152.633,-82.7547
62.954,3.33326,-4.08599,3.97079,-183.977,-158.281,-88.8771
62.959,3.2891,-4.19887,4.21199,-188.495,-164.372,-94.6228
62.964,3.08815,-4.40142,4.4394,-192.428,-171.705,-98.8835
62.969,2.90202,-4.66526,4.59406,-196.124,-180.71,-101.823
62.973,2.92997,-5.10604,4.63356,-199.695,-191.607,-103.177
62.978,3.08106,-5.40711,4.64228,-202.693,-203.169,-103.517
62.983,2.95201,-5.80514,4.63463,-205.993,-214.471,-103.084
62.988,2.91714,-6.21409,4.68057,-208.378,-226.561,-101.496
62.993,3.13325,-6.70732,4.5774,-210.171,-237.349,-99.8958
62.998,3.34532,-6.9872,4.54537,-213.91,-245.466,-99.3735
63.003,3.24068,-7.4464,4.63645,-219.274,-253.081,-99.3158
63.007,3.21693,-8.0427,4.94396,-223.981,-261.35,-99.0005
63.013,3.29596,-8.62862,5.34818,-227.522,-269.561,-98.0369
63.018,3.49906,-9.18143,5.76553,-230.668,-276.854,-96.9959
63.022,3.8414,-9.59195,6.17527,-234.495,-281.833,-96.4585
63.027,3.96669,-9.98072,6.58682,-239.108,-284.588,-95.56
63.033,4.02579,-10.4028,7.21539,-242.406,-288.696,-92.7234
63.037,4.60507,-10.9427,7.65112,-242.384,-295.186,-89.078
63.042,5.29256,-11.3296,8.00465,-242.607,-297.561,-87.726
63.048,5.3538,-11.773,8.65289,-246.594,-295.434,-88.5613
63.053,4.92061,-12.5901,9.23961,-250.84,-291.656,-89.0477
63.057,4.07186,-13.2669,9.52516,-254.934,-286.163,-88.5933
63.062,3.40049,-13.8079,9.70713,-259.726,-279.539,-87.7293
63.068,3.14942,-14.4189,10.2356,-264.255,-272.551,-87.5057
63.073,2.25363,-15.2849,11.1401,-268.862,-263.557,-87.5638
63.077,0.975411,-16.2226,12.4874,-273.029,-250.794,-89.0276
63.083,-0.272775,-16.7998,14.3054,-276.603,-236.987,-92.3184
63.088,-2.00085,-17.0239,16.1452,-280.33,-226.374,-93.6099
63.092,-3.51084,-17.2339,17.4172,-282.257,-219.778,-90.4446
63.097,-4.48321,-17.4303,17.9907,-281.581,-214.735,-84.3484
63.103,-5.21575,-17.3405,18.4558,-278.688,-208.994,-77.9153
63.108,-5.63412,-16.7023,19.2079,-273.165,-204.006,-71.7985
63.112,-5.57508,-15.9347,19.9061,-264.385,-199.363,-63.844
63.118,-5.03909,-14.7556,20.358,-253.142,-191.814,-55.0233
63.123,-4.60698,-13.3038,20.8131,-239.372,-181.282,-48.1114
63.127,-4.37079,-11.3493,21.4691,-222.795,-170.044,-42.9511
63.132,-4.38257,-9.50536,21.8632,-204.807,-158.036,-38.995
63.138,-5.08007,-8.32997,22.2347,-185.483,-143.734,-36.7632
63.143,-6.38862,-7.88697,23.0527,-163.884,-128.501,-35.2695
63.147,-7.96407,-7.82022,24.3374,-139.691,-114.879,-32.5106
63.152,-9.80809,-7.40936,26.1435,-112.483,-106.096,-25.7693
63.158,-11.1122,-6.60835,27.861,-82.9231,-106.292,-15.6654
63.162,-12.5919,-5.64335,27.635,-51.2448,-109.848,-0.51565
63.167,-13.3455,-4.60502,24.6446,-25.3203,-102.145,14.1614
63.173,-12.7972,-4.29493,21.0519,-6.73427,-80.4705,22.8836
63.178,-11.7841,-6.17142,18.9613,9.36357,-54.0542,27.1056
63.182,-12.1799,-12.4654,18.7235,24.5837,-27.9644,41.8621
63.187,-9.51855,-7.92399,16.5621,47.9413,-4.7565,46.7846
63.193,-7.62875,-5.72013,15.7203,70.2885,22.7918,46.9061
63.198,-6.73115,-6.63836,15.5128,92.7266,50.4155,50.173
63.202,-4.91611,-8.47541,9.45565,102.947,62.5398,49.8615
63.208,0.759064,-13.4871,-1.06354,89.0822,57.1985,46.0085
63.212,8.87408,-18.1373,-9.07974,58.9075,37.4096,37.6706
63.217,14.6576,-18.3766,-10.3941,38.0301,7.3591,35.5199
63.222,17.6068,-14.8331,-9.00663,42.651,-9.98392,41.2144
63.227,16.713,-9.31291,-6.97546,60.8063,3.8715,39.6148
63.232,11.9387,-4.87347,-2.04686,66.8286,42.944,21.2994
63.237,7.51421,-3.93226,3.93451,58.6117,80.171,-1.32571
63.242,5.72303,-5.79768,7.23009,52.0663,101.023,-14.3607
63.247,5.84843,-8.83123,7.95054,51.3573,113.187,-15.9903
63.251,7.08967,-11.6424,7.43769,54.553,118.142,-9.89372
63.256,7.9111,-13.0141,7.12865,60.2574,117.7,0.00548052
63.261,6.55298,-12.2287,7.88652,64.1658,118.464,9.30168
63.266,3.58528,-10.4669,8.4441,64.3925,122.965,17.2336
63.271,0.457501,-9.2889,8.12446,61.1581,128.56,22.9445
63.276,-1.36435,-9.28845,8.15235,56.991,133.091,25.2712
63.281,-1.48832,-10.056,8.08231,53.8173,133.028,25.4898
63.285,-1.06387,-10.1211,7.40373,51.3158,129.282,24.3258
63.29,-0.358397,-9.51921,6.17273,49.9544,122.292,25.62
63.295,0.494524,-8.87228,4.48985,49.5162,114.949,29.0875
63.3,0.651873,-8.49822,3.16696,48.5471,110.395,31.7048
63.305,0.0563805,-8.50149,2.61082,46.6576,108.011,32.3228
63.31,-0.681201,-8.74075,2.56565,44.2773,107.16,31.5106
63.315,-1.38439,-9.14167,2.86795,42.3767,106.457,30.1087
63.32,-1.89487,-9.39767,3.24006,41.8207,104.804,29.1776
63.325,-2.32795,-9.41155,3.20583,41.7466,101.715,28.9671
63.329,-2.56122,-9.21471,3.06384,41.3965,96.7434,28.7919
63.334,-2.25889,-9.03309,3.68001,43.3121,89.8064,29.6078
63.339,-2.02287,-8.74288,4.90826,46.8794,79.801,31.4718
63.344,-1.91358,-8.67233,5.52634,50.14,66.1995,35.3616
63.349,-1.73187,-8.76867,5.56627,52.5287,53.297,39.8673
63.354,-1.29705,-8.81725,5.20632,55.0033,42.1758,45.2127
63.359,-0.758748,-8.96602,4.41643,55.4767,32.1274,49.5203
63.363,-0.383809,-9.07596,3.87525,54.3299,26.3323,51.2261
63.368,-0.409901,-9.08082,3.64448,52.0948,25.4522,50.1141
63.373,-0.484018,-9.07222,3.73062,49.8139,27.4357,47.8828
63.378,-0.295625,-8.99783,4.20327,48.2945,28.705,45.5805
63.383,-0.307901,-8.79399,4.75434,47.1448,27.4882,44.2818
63.388,-0.324878,-8.64711,5.07053,46.6904,23.8889,44.6571
63.393,-0.0558563,-8.66315,4.95971,45.9791,19.4202,45.8247
63.398,0.430846,-8.72591,4.46336,44.4124,15.9018,46.5723
63.402,0.661982,-8.78687,3.93742,42.1342,15.8243,46.1577
63.408,0.579733,-8.85366,3.7644,40.1424,18.6375,44.8696
63.412,0.566585,-8.9013,3.73626,38.3806,22.0644,42.975
63.417,0.456231,-8.93945,3.95276,36.8408,25.1966,40.7068
63.423,0.319304,-8.94841,4.06865,35.6378,27.6527,39.3014
63.428,0.269288,-9.0314,4.06213,34.8128,29.2112,38.4398
63.432,0.161963,-9.18573,3.7351,33.6862,30.0922,37.4845
63.437,-0.0749439,-9.26351,3.31535,32.6744,30.9146,36.3047
63.443,-0.302969,-9.25216,3.09036,32.5657,31.8491,34.3465
63.448,-0.547057,-9.16722,3.12175,32.902,31.7679,32.2174
63.452,-0.676146,-9.1019,3.19622,33.4998,30.5432,30.4374
63.458,-0.608211,-9.09741,3.16339,33.8824,28.3291,29.2701
63.463,-0.398015,-9.22946,3.04496,34.5977,25.6142,28.7851
63.467,-0.333443,-9.18208,2.98099,35.4284,22.9422,28.2152
63.472,-0.571161,-8.95679,3.25369,36.1701,21.0616,27.1776
63.478,-0.80087,-8.72415,3.57542,36.7157,18.8992,26.3456
63.483,-0.859248,-8.53621,3.88707,36.9658,16.919,25.8623
63.487,-0.865096,-8.49274,4.13179,36.7856,14.8987,25.7832
63.493,-0.847144,-8.51912,4.28063,36.1373,13.362,26.1016
63.498,-0.828406,-8.47568,4.55877,35.7212,11.5351,26.8965
63.503,-0.798948,-8.41494,4.77408,35.714,8.89098,28.2298
63.507,-0.699055,-8.30217,4.86341,35.3957,6.02352,29.9932
63.513,-0.540261,-8.25775,4.86401,34.9774,4.0975,31.3934
63.518,-0.51143,-8.23376,4.78786,33.667,3.79746,32.5767
63.522,-0.527601,-8.27234,4.65688,31.588,4.55979,32.7248
63.527,-0.555659,-8.22523,4.65628,30.1397,4.78874,32.671
63.533,-0.516642,-8.26066,4.67766,29.5936,4.65506,33.0902
63.537,-0.521321,-8.26552,4.63097,29.1589,4.11014,33.541
63.542,-0.519187,-8.38439,4.49126,28.6577,3.47813,33.6819
63.548,-0.459713,-8.54557,4.43224,27.8674,3.58163,33.4499
63.553,-0.479967,-8.64853,4.18058,27.1106,3.96612,32.747
63.557,-0.587721,-8.71148,3.97139,26.3343,4.80033,31.7177
63.562,-0.565508,-8.78332,3.94811,25.8044,6.12577,30.4374
63.568,-0.588112,-8.83251,3.89603,25.5199,7.11027,28.9236
63.573,-0.579918,-8.89084,3.82953,25.1662,7.17775,27.8626
63.577,-0.492504,-9.04556,3.81176,24.5909,7.59067,27.2451
63.583,-0.51959,-9.14248,3.8948,24.6507,8.02587,26.4488
63.588,-0.505445,-9.08271,3.94762,24.4988,8.4537,25.7121
63.592,-0.503117,-8.94938,4.0559,23.9353,8.86878,25.1996
63.597,-0.510811,-8.94643,4.11239,23.5427,9.56369,25.0165
63.603,-0.582445,-8.67787,4.29858,23.4679,9.82711,24.3456
63.607,-0.579393,-8.5308,4.34247,22.8279,11.1374,23.61
63.612,-0.655099,-8.54825,4.40986,21.7957,12.5639,23.0584
63.617,-0.761947,-8.5468,4.47202,20.7519,13.4096,22.7684
63.622,-0.895919,-8.44868,4.51851,20.0432,13.9044,22.6254
63.627,-0.933084,-8.58912,4.4867,19.6552,13.8455,22.9898
63.632,-0.89412,-8.68588,4.51494,19.6593,13.6702,23.1703
63.637,-0.894909,-8.80512,4.40897,19.8598,13.1475,23.4424
63.642,-1.08945,-8.70069,4.41764,19.9937,12.5377,23.4046
63.646,-1.13764,-8.64439,4.55274,19.7927,11.7003,23.5868
63.651,-1.20295,-8.50398,4.59337,19.7346,11.2628,23.638
63.656,-1.14915,-8.40709,4.44328,19.5725,10.7339,23.8093
63.661,-1.15294,-8.39567,4.48523,19.3849,10.7817,24.1488
63.666,-1.05619,-8.59802,4.57318,19.6171,10.4915,24.6252
63.671,-1.0769,-8.59352,4.51976,20.2854,10.3705,25.2971
63.676,-1.07011,-8.71154,4.42124,21.0742,10.2694,26.2741
63.68,-0.919745,-8.75009,4.26866,21.9483,10.2827,27.381
63.685,-0.732422,-8.71333,4.20772,22.6167,10.4684,29.2169
63.69,-0.636643,-8.49666,4.19233,24.0483,11.5029,30.8068
63.695,-0.448762,-8.63141,4.29362,25.3988,12.877,32.1505
63.7,-0.456435,-8.89948,4.37527,27.1395,14.7158,33.6885
63.705,-0.559163,-9.11952,4.29687,29.3406,16.5229,34.6076
63.71,-0.673125,-9.45236,4.14972,31.4535,17.9643,35.7927
63.715,-0.8799,-9.49294,3.97911,33.6517,19.5202,37.1076
63.72,-0.917537,-9.42188,3.89835,35.8454,20.5713,38.469
63.724,-0.922209,-9.5749,3.92159,38.6034,21.9887,40.2555
63.729,-0.908425,-9.63219,3.90452,41.6427,23.7519,41.8966
63.734,-0.96852,-9.73463,3.8745,44.3535,25.8406,43.0359
63.739,-1.17133,-9.93749,4.08541,47.3256,27.4153,44.2274
63.744,-1.52834,-10.2148,4.02864,50.2288,28.1237,45.9415
63.749,-1.97758,-10.3166,3.88674,52.4473,28.0727,48.3165
63.754,-1.46324,-10.4509,4.36308,55.2317,27.7563,50.6686
63.758,-1.21773,-10.0126,5.06939,59.6929,27.5202,52.0489
63.763,-1.08347,-10.0654,5.50069,62.3723,27.2323,52.7806
63.768,-0.765797,-10.64,5.92501,65.8408,27.5741,54.332
63.773,-0.560129,-10.8077,6.01666,69.7022,28.5303,55.5423
63.778,-0.482097,-10.7011,5.88031,72.4416,29.6643,56.4147
63.783,-0.406044,-11.0431,5.99021,74.7745,30.7626,57.9012
63.788,-0.460054,-11.2533,6.01747,78.0035,32.2038,59.9888
63.793,-0.465466,-11.4934,6.037,81.3815,32.7099,62.1145
63.798,-0.536267,-11.8641,6.18088,84.402,32.5068,64.7567
63.803,-0.610281,-12.0905,6.40001,88.2123,32.1494,67.561
63.807,-0.53284,-12.3729,6.54193,91.8641,30.9358,70.5078
63.812,-0.481011,-12.7006,6.72945,95.5016,29.5702,73.885
63.818,-0.341864,-12.9773,6.87541,99.0111,28.0075,77.0326
63.823,-0.126805,-13.2301,7.11256,101.906,26.4981,79.5035
63.827,0.0422079,-13.4973,7.52777,105.533,25.0773,81.9609
63.833,0.125073,-13.5114,7.74691,108.994,23.4045,84.5489
63.838,0.191345,-13.3739,7.90632,112.032,20.9856,87.4129
63.842,0.394139,-13.4018,7.89233,114.942,18.0446,90.7633
63.847,0.636457,-13.5206,7.88968,117.621,14.7645,93.9346
63.853,0.531493,-13.7457,8.17078,120.702,11.3216,97.7019
63.858,0.692416,-14.0711,8.14269,124.651,6.40352,102.431
63.862,1.09195,-14.7753,7.49711,128.057,1.55172,107.114
63.868,1.49458,-15.4472,6.86162,130.92,-2.4516,111.663
63.873,1.82864,-15.9946,6.39549,133.305,-5.92521,115.829
63.877,2.03796,-16.4633,6.23689,136.388,-9.38654,121.477
63.882,2.12759,-16.9266,6.18361,140.598,-14.9363,128.743
63.888,2.22146,-17.367,6.22679,144.766,-22.305,137.011
63.893,2.75773,-17.5221,6.56747,148.854,-33.5367,147.39
63.897,2.6391,-18.0586,6.67286,153.845,-40.7246,156.164
63.902,2.94908,-18.0725,6.50172,159.136,-48.4764,163.745
63.908,3.08363,-17.9442,6.64248,163.294,-55.5424,172.326
63.912,2.557,-17.3657,7.00723,166.995,-60.388,180.31
63.917,1.84617,-16.7371,7.2192,169.604,-63.0868,187.059
63.923,1.81858,-16.3756,7.13677,171.458,-63.2592,192.564
63.928,2.18304,-16.5513,6.35876,171.936,-60.0444,196.414
63.932,2.69279,-16.4096,4.99807,169.637,-52.4059,197.011
63.937,2.76148,-15.667,3.78884,164.651,-40.6275,195.519
63.943,2.39425,-14.6581,2.98242,158.542,-25.1476,191.556
63.948,1.99569,-13.4804,2.63528,152.016,-9.43701,185.829
63.952,1.42181,-12.1419,2.83352,144.649,3.66742,178.476
63.958,0.78216,-10.8799,3.31359,135.226,12.7401,169.632
63.963,0.21516,-9.6488,3.63582,124.785,17.1674,160.966
63.967,0.18952,-8.52866,3.65972,113.297,18.378,151.492
63.972,0.1439,-7.91097,3.49602,100.754,16.5526,142.52
63.978,0.767919,-7.84896,3.15969,89.9595,11.3161,133.458
63.983,1.58122,-8.00497,2.82599,81.6717,2.31711,126.958
63.987,2.31556,-7.91929,2.66876,77.3726,-8.04323,123.832
63.993,2.52531,-7.32041,2.77722,76.1139,-17.3391,124.453
63.998,0.950625,-6.06553,3.09876,72.8409,-17.1433,123.79
64.002,-0.391072,-4.21937,3.71837,64.2739,-16.7409,121.345
64.007,-2.04884,-2.20625,4.42312,51.5848,-22.0208,118.99
64.012,-3.12603,-1.38928,4.58347,36.6127,-26.9816,114.438
64.017,-1.97598,-1.70589,4.49901,24.9632,-37.3721,111.576
64.022,-0.475925,-1.77236,4.96824,19.3818,-53.0541,107.357
64.027,0.46573,-2.80836,4.77492,16.5385,-62.3303,97.4102
64.032,-0.140671,-1.41159,2.69573,2.59791,-68.6256,68.9686
64.036,-0.967171,-0.701891,1.22094,-25.3721,-67.0698,52.8033
64.041,1.32368,-2.3694,-0.0470382,-41.1401,-53.5835,44.4069
64.046,3.43255,-3.33828,-1.71277,-53.7403,-45.7791,29.9898
64.051,4.49006,-4.09485,-2.40665,-71.7686,-40.9349,15.6104
64.056,5.42259,-4.37977,-2.45045,-85.9781,-36.0355,-1.01109
64.061,5.51485,-3.90237,-2.44586,-95.7934,-33.7555,-16.975
64.066,5.02241,-3.21971,-2.12336,-105.469,-33.127,-28.273
64.071,4.50892,-2.72559,-1.58014,-114.662,-34.5984,-34.0484
64.076,3.98945,-2.50169,-1.09182,-122.711,-38.705,-36.5278
64.08,3.62614,-2.45699,-0.478212,-130.693,-40.8389,-40.3334
64.085,3.46675,-2.55242,0.248898,-137.527,-41.5166,-46.3214
64.09,3.25746,-2.53344,0.817785,-142.571,-44.9435,-52.6668
64.095,2.90367,-2.53822,1.00267,-146.504,-51.0673,-57.5908
64.1,2.67676,-2.89397,1.01075,-150.854,-57.7096,-62.245
64.105,2.4783,-3.22518,1.1181,-156.057,-64.1847,-67.9759
64.11,2.25396,-3.64953,1.20528,-161.972,-69.9925,-74.7756
64.115,1.97701,-4.0682,1.29272,-167.846,-75.1368,-81.0974
64.119,1.78444,-4.54293,1.40798,-173,-81.931,-86.4376
64.124,1.70224,-4.90733,1.58084,-177.429,-90.2754,-91.4009
64.129,1.63567,-5.22989,1.70648,-181.781,-98.7339,-96.2291
64.134,1.60211,-5.41885,1.78941,-186.066,-106.222,-100.695
64.139,1.64666,-5.61336,1.91374,-190.553,-113.916,-104.53
64.144,1.68633,-5.7056,2.07265,-194.901,-122.294,-108.084
64.149,1.72654,-5.89464,2.2558,-198.534,-130.306,-111.052
64.153,1.7376,-6.14333,2.52423,-201.728,-138.376,-113.713
64.158,1.8718,-6.23221,2.84775,-204.353,-146.254,-115.769
64.163,1.7967,-6.33975,3.15637,-207.255,-153.189,-117.069
64.168,1.76537,-6.58879,3.50476,-209.847,-161.432,-116.674
64.173,1.95402,-6.87932,3.73171,-212.128,-169.348,-115.824
64.178,2.01144,-7.10723,3.92209,-216.208,-175.881,-115.757
64.183,1.91155,-7.52559,4.16767,-221.615,-183.325,-115.45
64.188,1.91954,-8.10279,4.56583,-226.089,-192.462,-114.291
64.193,1.94033,-8.67195,4.99578,-229.787,-201.957,-112.609
64.198,2.00548,-9.12172,5.34304,-233.167,-210.317,-110.845
64.202,2.19745,-9.49244,5.69937,-236.517,-217.389,-109.75
64.208,2.40608,-9.72653,5.90618,-239.79,-223.894,-108.747
64.213,2.2555,-9.97344,5.91446,-243.778,-228.315,-106.961
64.217,2.1035,-10.3226,6.18956,-248.829,-230.351,-104.716
64.222,1.86785,-10.7807,6.7575,-253.258,-234.133,-102.858
64.228,1.59715,-11.5113,7.34352,-256.98,-238.512,-100.997
64.233,1.40813,-12.4268,8.03,-260.3,-241.538,-98.0399
64.237,1.44031,-13.1102,8.67265,-262.907,-243.347,-95.6497
64.243,1.28592,-13.5377,9.29758,-266.944,-243.282,-92.8536
64.248,0.838474,-14.0126,9.92047,-271.243,-243.331,-89.0671
64.252,0.205657,-14.5361,10.5459,-274.728,-242.798,-85.066
64.257,-0.53626,-14.9832,11.2544,-277.936,-240.334,-81.7756
64.263,-1.54499,-15.2727,12.2515,-281.289,-235.953,-79.0762
64.268,-2.70888,-15.5084,13.4988,-284.592,-231.363,-76.4225
64.272,-3.67591,-15.6564,14.6273,-287.306,-227.135,-73.7218
64.277,-4.27241,-15.8808,15.4289,-289.344,-222.952,-70.5638
64.283,-4.50699,-16.1919,16.0827,-289.916,-218.237,-66.9448
64.287,-4.42695,-16.4318,16.9556,-287.375,-211.751,-62.5446
64.292,-4.27113,-16.2216,18.1,-281.507,-203.434,-57.3524
64.298,-3.76618,-15.679,18.9807,-273.056,-193.551,-50.5352
64.303,-3.3889,-14.7634,19.6454,-262.259,-179.576,-44.5657
64.307,-3.6595,-13.1027,21.0107,-250.113,-166.386,-42.0307
64.312,-4.11757,-11.7375,22.5955,-236.056,-158.548,-39.2454
64.318,-4.51249,-12.7504,23.8139,-220.473,-152.596,-30.7751
64.323,-4.2553,-9.44057,24.0215,-199.181,-145.042,-26.638
64.327,-5.39537,-7.3407,24.3096,-174.574,-130.474,-23.9808
64.333,-7.28797,-7.55202,24.6339,-151.563,-116.749,-18.7843
64.338,-8.67731,-7.70108,24.9779,-131.09,-107.202,-13.7454
64.342,-9.6531,-7.78373,25.3767,-108.812,-98.1897,-4.11022
64.347,-10.552,-7.00569,25.1502,-85.8719,-86.9271,7.03365
64.353,-11.1989,-6.57744,24.666,-64.3906,-73.0235,15.9467
64.358,-11.3609,-6.79447,24.1127,-43.0102,-56.7147,24.9268
64.362,-11.213,-6.2801,23.1609,-20.6042,-36.7215,32.5074
64.368,-10.6794,-5.66897,22.0076,1.80201,-13.4801,38.7428
64.373,-9.60634,-5.42119,20.9151,24.2582,11.2454,41.7136
64.377,-8.07847,-5.63371,20.2428,45.9832,37.1044,40.664
64.382,-5.5866,-6.18395,19.4604,66.6716,61.7066,36.2111
64.388,-1.51082,-7.6269,15.0628,82.5095,83.5256,27.9311
64.393,4.16631,-11.7226,4.38497,77.613,99.6818,19.4199
64.397,12.7167,-15.8966,-5.03783,51.7705,102.236,7.00089
64.402,20.9355,-17.2233,-8.30574,30.1152,84.2468,-1.66446
64.407,25.6929,-15.4194,-8.517,30.1998,72.5556,-2.88279
64.412,25.2606,-11.1216,-7.58408,43.504,87.236,-7.67545
64.417,17.9466,-6.3891,-3.10099,46.9969,119.096,-22.1834
64.422,9.69534,-5.32617,3.15479,39.0478,150.77,-36.6703
64.427,6.03117,-7.65804,7.6714,36.9744,171.664,-41.0603
64.431,4.88926,-10.0773,11.6595,45.3506,182.338,-35.3505
64.436,3.74221,-11.3584,14.8338,57.8142,181.952,-20.9322
64.441,2.37794,-11.5428,15.2871,67.3298,172.018,-2.60968
64.446,0.718339,-10.9745,13.1356,69.5065,154.384,14.1859
64.451,-0.867632,-10.667,10.1434,64.6005,136.625,27.7416
64.456,-1.399,-10.4987,8.2318,58.0433,127.238,35.5975
64.461,-1.03744,-10.3504,7.44455,54.8246,124.526,37.579
64.466,-0.704839,-9.19806,6.43904,53.9706,121.546,37.9865
64.471,-0.570897,-8.24483,4.82544,53.2796,115.844,38.8229
64.475,-0.611108,-8.19927,3.20609,52.8688,105.727,41.104
64.48,-0.922621,-8.6517,1.38014,52.3962,94.9212,43.8318
64.485,-1.74519,-8.84936,0.00750143,51.3523,88.0788,44.2712
64.49,-2.69853,-8.89898,-0.187066,50.4776,84.5105,43.3453
64.495,-3.2206,-9.11237,0.438783,51.6829,80.9615,42.184
64.5,-3.37567,-9.27586,1.31994,54.303,75.9665,40.6801
64.505,-2.60466,-9.21292,2.09996,57.0588,69.1515,39.0573
64.509,-1.83136,-9.00055,3.06865,59.7573,62.6805,37.3983
64.514,-1.49034,-9.09677,4.00364,61.8492,56.4245,37.6123
64.519,-1.11782,-9.37694,4.13441,64.1153,47.8594,40.4091
64.524,-0.361498,-9.93413,4.23041,68.3306,36.0756,45.8553
64.529,0.500163,-10.0222,4.16538,73.3661,26.2606,51.522
64.534,0.194661,-9.50045,3.39005,72.5283,23.4645,53.4491
64.539,-0.268348,-9.05797,2.75667,67.923,24.6124,52.4206
64.544,-0.305705,-8.89627,3.12496,65.4136,29.4841,49.7999
64.548,-0.399086,-8.68033,3.94384,61.9251,35.9364,45.022
64.553,-0.572987,-8.51059,4.75053,57.4335,42.5885,40.9564
64.558,-0.474623,-8.68818,5.06327,53.6418,45.4747,39.4092
64.563,-0.382703,-8.74703,5.09309,50.859,45.0926,39.1644
64.568,-0.393731,-8.57434,5.16865,48.5641,43.7773,38.8486
64.573,-0.512481,-8.3924,5.3091,46.0177,43.9325,37.5726
64.578,-0.760328,-8.31738,5.50257,44.1215,45.673,35.3029
64.583,-0.960238,-8.40108,5.71902,42.9453,45.5101,33.6659
64.588,-0.600955,-8.53277,5.31091,41.5472,43.1244,33.5904
64.592,0.0621267,-8.82573,4.15639,39.3572,41.4739,33.7308
64.597,0.311055,-8.91035,3.42573,36.7851,42.8351,32.326
64.603,-0.0366126,-8.83214,3.29917,35.4244,43.0219,30.7025
64.608,-0.486145,-8.7706,3.49069,36.3833,41.227,30.1351
64.612,-0.790801,-8.75933,3.82277,37.7675,39.7514,29.8677
64.618,-1.08729,-8.83443,3.9915,38.5815,39.3457,29.1457
64.623,-1.08825,-8.96142,3.93304,38.8892,38.331,28.1744
64.627,-1.10657,-9.00271,3.69102,38.8189,36.2752,27.4807
64.632,-1.27678,-8.99547,3.69062,39.0645,33.1102,27.2711
64.638,-1.15123,-9.05497,3.7417,40.135,28.3867,27.9233
64.643,-0.667379,-9.058,3.47825,40.2111,24.5661,28.0304
64.647,-0.492422,-9.01789,3.22658,39.485,23.4149,26.6823
64.652,-0.378706,-8.83159,3.35455,38.987,22.7782,25.3332
64.658,-0.526285,-8.72305,3.59444,38.8021,22.7705,24.1128
64.662,-0.748689,-8.66905,4.0082,38.8228,22.217,23.5545
64.667,-0.827532,-8.53683,4.57388,38.5709,21.0181,23.5728
64.673,-0.785789,-8.46607,4.84882,37.6722,19.2161,24.0315
64.678,-0.682933,-8.41846,4.84733,36.2413,17.3309,24.3393
64.682,-0.581245,-8.4642,4.8006,34.758,15.7667,25.0011
64.687,-0.502694,-8.56112,4.72416,33.5905,14.3519,25.5531
64.693,-0.520768,-8.6574,4.58904,32.3376,13.4519,25.6782
64.698,-0.49933,-8.74569,4.41866,30.795,13.1861,25.2907
64.702,-0.557482,-8.85593,4.33568,29.6696,13.0112,25.2089
64.708,-0.589274,-8.95643,4.16601,28.706,12.6851,25.1829
64.713,-0.65226,-8.92713,4.01941,27.9424,12.4149,25.062
64.717,-0.782317,-8.84063,3.96549,27.5797,11.7287,25.1884
64.722,-0.859803,-8.74373,3.99172,27.1208,11.0779,25.2895
64.728,-0.877799,-8.62778,3.99131,26.8629,10.6859,25.5751
64.733,-0.76853,-8.62293,3.92874,26.6174,10.3468,26.0357
64.737,-0.715054,-8.56693,3.98834,26.3325,10.9071,25.8434
64.743,-0.654149,-8.60706,3.95444,25.7996,11.3519,25.2558
64.748,-0.64227,-8.59921,3.97799,25.0481,12.3934,24.7159
64.752,-0.71232,-8.60368,4.11128,24.6586,12.7102,24.434
64.757,-0.755867,-8.79617,4.19262,24.8755,12.7453,24.8344
64.763,-0.754501,-8.93677,4.10634,25.1155,12.0032,25.5323
64.768,-0.641357,-9.00086,3.95571,25.4403,10.645,26.5173
64.772,-0.699005,-9.06895,4.02212,25.6685,9.90071,27.1102
64.777,-0.871746,-8.86755,4.19887,25.3223,9.77221,27.3648
64.783,-0.830056,-8.65658,4.39295,25.0071,9.72418,27.6143
64.787,-0.772037,-8.49678,4.51109,24.3995,10.1097,27.8168
64.792,-0.744969,-8.40908,4.6231,23.6293,11.1237,27.457
64.797,-0.807649,-8.37869,4.77708,22.9093,12.3471,27.0516
64.802,-0.879294,-8.42927,4.80574,22.2045,13.2452,26.7223
64.807,-1.01826,-8.41579,4.63744,21.8161,13.7649,26.7198
64.812,-1.09677,-8.57544,4.34346,21.5133,13.8205,27.214
64.817,-1.10486,-8.82035,4.27436,22.0307,13.0208,27.9526
64.822,-1.23357,-8.98244,4.37584,23.0367,11.4399,28.8298
64.826,-1.3892,-9.03738,4.62565,24.3699,9.28013,29.8594
64.831,-1.29157,-8.92314,4.66788,25.0284,7.31726,30.642
64.836,-1.19994,-8.80686,4.42402,25.8034,6.2295,31.3221
64.841,-1.2391,-8.97154,4.34283,26.1775,5.55779,31.7551
64.846,-1.4829,-8.987,4.50992,26.6639,5.30699,32.2019
64.851,-1.44652,-8.7201,4.52526,27.1816,4.55803,33.0103
64.856,-1.43571,-8.51069,4.51128,27.566,3.89082,34.2933
64.861,-1.37529,-8.45131,4.66466,28.5254,3.38933,35.8271
64.866,-1.22015,-8.54381,4.71865,30.1526,2.66549,37.8929
64.87,-1.04773,-8.65799,4.59576,31.4872,2.32457,39.8419
64.875,-0.861181,-8.93801,4.52209,33.1466,2.56406,41.9548
64.88,-0.873385,-9.12843,4.37157,35.3123,3.41256,44.3169
64.885,-0.940706,-9.11375,4.19793,37.8316,3.88687,46.5759
64.89,-0.52617,-9.35844,4.11443,40.3064,4.6036,48.019
64.895,-0.416407,-9.48765,4.17432,43.4958,7.52276,49.0867
64.9,-0.533701,-9.75077,4.29888,46.4607,10.9095,49.6025
64.904,-0.533758,-9.98959,4.48486,49.8213,13.9033,49.9753
64.909,-0.684789,-9.78061,4.73974,53.4214,16.0536,50.9063
64.914,-0.780996,-9.8618,5.05023,56.2661,17.5326,52.0078
64.919,-0.650658,-9.89652,5.17538,59.1609,18.5915,53.3608
64.924,-0.514253,-9.98958,5.3345,62.1815,19.3912,54.3148
64.929,-0.59455,-10.3016,5.71205,66.1899,20.6228,55.6446
64.934,-0.693182,-10.6853,6.16271,70.5542,18.3818,57.681
64.939,-0.67223,-11.5152,6.15828,74.8784,19.1336,59.198
64.944,-0.136825,-11.8925,5.81058,79.0378,21.6734,60.164
64.948,0.00198614,-12.0314,5.78112,81.6821,23.3523,62.4545
64.953,-0.042849,-11.8216,6.06014,84.7863,25.2048,65.1504
64.958,0.0727873,-11.878,6.32667,87.9607,26.8172,68.1275
64.963,0.171458,-11.9705,6.60692,91.4973,27.9073,71.6414
64.968,0.136822,-12.4144,6.84565,95.5711,28.9562,75.557
64.973,0.308365,-12.7425,6.72739,99.3086,29.4734,79.2737
64.978,0.310088,-13.0116,6.62146,102.642,30.6833,82.7023
64.983,0.318537,-13.1691,6.48462,105.933,31.1786,85.5828
64.987,0.115605,-13.2237,6.68413,109.494,31.5428,89.4646
64.993,0.0360363,-13.1734,7.04562,113.231,30.2222,94.1418
64.998,0.208476,-13.3636,7.2667,117.41,27.4826,98.8344
65.002,0.589724,-13.6266,7.37666,122.208,24.8372,102.924
65.007,0.804886,-13.8555,7.64663,126.784,22.1796,106.222
65.013,0.649789,-14.0952,8.24827,131.748,18.4236,109.889
65.018,0.789836,-14.13,8.48648,137.116,13.8223,113.635
65.022,1.10177,-14.3492,8.35555,141.17,8.73698,116.405
65.027,1.36934,-14.8347,8.17123,145.299,2.87891,118.402
65.033,1.83405,-15.3717,8.30814,150.643,-3.92135,121.665
65.037,2.64953,-15.8507,8.33456,156.285,-11.6548,125.872
65.042,3.2414,-16.3624,8.32289,161.978,-19.8089,130.329
65.048,3.8834,-16.7513,8.43106,166.359,-26.4762,134.94
65.053,4.64878,-17.0007,8.39146,170.135,-32.8111,138.938
65.057,5.15124,-16.8614,8.418,172.608,-39.1002,141.628
65.062,5.39781,-16.3274,8.13391,174.328,-43.1907,143.044
65.068,5.29675,-15.3029,7.35273,176.908,-45.3774,146.063
65.073,4.60814,-14.402,6.90226,179.835,-42.8595,152.276
65.077,4.00108,-14.3333,6.49064,179.953,-36.2164,157.586
65.083,3.5187,-14.5945,5.25906,176.144,-26.7406,158.988
65.088,3.12728,-14.9187,4.04354,171.016,-12.7437,156.578
65.092,2.48119,-15.0044,3.09117,166.236,7.77549,150.339
65.097,1.81259,-14.5755,3.16336,160.584,32.8872,140.447
65.103,0.539817,-13.6125,3.97187,153.009,52.0352,132.921
65.108,-0.70189,-12.4534,4.56677,146.86,65.1813,127.026
65.112,-1.54931,-11.347,4.89271,139.685,74.39,122.181
65.118,-1.85531,-10.4824,4.80613,130.931,80.1792,118.119
65.123,-1.66767,-9.49022,4.6249,122.432,83.8133,113.755
65.127,-1.74281,-8.52851,4.54638,113.026,83.9023,109.354
65.132,-1.96803,-7.57404,4.53232,104.027,79.6374,103.793
65.138,-1.84976,-7.02775,4.40725,96.4676,72.5687,97.8085
65.143,-1.30772,-7.03418,3.98697,91.7643,61.7599,92.5024
65.147,-0.198972,-7.00705,3.29311,90.0345,47.5548,87.4626
65.152,0.31476,-6.83267,2.63282,87.9653,33.4014,83.3474
65.158,0.478917,-6.39209,1.93133,83.7177,21.3598,80.321
65.162,0.331992,-5.25267,1.5315,77.455,12.2122,78.5611
65.167,-0.378771,-3.88462,1.54139,68.3529,8.13062,79.5344
65.173,-1.02179,-2.71493,1.24715,57.3055,6.08975,79.7271
65.178,-2.3781,-2.56898,1.28892,44.122,5.83515,79.8047
65.182,-2.82243,-2.76078,1.81088,31.7494,-0.129877,76.6118
65.187,-2.86819,-2.76454,2.77652,24.4584,-18.5384,75.2338
65.192,-3.39366,-2.37287,3.40676,22.4445,-42.2872,72.0588
65.197,-4.35462,-0.61339,3.09154,15.0369,-66.864,64.1195
65.202,-4.84614,-0.0228397,3.06234,-0.810816,-81.4282,63.451
65.207,-3.68864,-1.08438,2.97043,-12.2601,-87.9519,61.4069
65.212,-1.97743,-2.05221,2.27665,-21.2338,-92.1987,52.6857
65.217,-0.581479,-2.62186,1.53779,-32.6218,-95.0091,42.5047
65.222,0.582434,-2.62488,1.09999,-43.852,-96.1796,32.8389
65.226,1.2446,-2.24333,1.04214,-53.2037,-96.0243,23.323
65.231,1.4275,-1.8445,1.15783,-62.24,-93.5755,13.9005
65.236,1.38398,-1.70861,1.20166,-72.1859,-88.6454,4.4934
65.241,1.31127,-1.73387,1.16587,-82.26,-83.6563,-4.04902
65.246,1.35888,-1.80538,1.24272,-92.5874,-80.7654,-10.0004
65.251,1.34982,-2.06491,1.56098,-102.261,-79.4571,-14.3255
65.256,1.49699,-2.33954,1.95653,-110.582,-79.8569,-19.1224
65.261,1.72548,-2.58644,2.13909,-117.568,-81.6882,-23.792
65.265,2.00672,-2.7124,2.31314,-124.024,-83.263,-29.2358
65.27,2.13623,-2.80088,2.38943,-130.691,-83.6401,-36.0294
65.275,2.18566,-2.9294,2.49511,-137.874,-84.2732,-42.6881
65.28,2.2481,-3.1863,2.66047,-144.213,-86.3359,-48.5255
65.285,2.17858,-3.49309,2.90026,-149.754,-89.5301,-52.7974
65.29,1.96453,-3.6872,3.29323,-154.572,-93.5948,-56.92
65.295,1.78625,-3.80455,3.68052,-159.966,-98.0285,-61.5729
65.299,1.68586,-3.92183,4.02562,-165.386,-102.992,-65.2543
65.304,1.62407,-3.99802,4.2235,-169.828,-110.043,-67.4765
