t,acc_x,acc_y,acc_z,gyr_x,gyr_y,gyr_z
55.004,-2.05013,7.98021,-0.167653,-30.8838,23.9258,-60.1196
55.009,-2.0214,7.96584,-0.105379,-29.9072,21.4844,-57.9834
55.014,-1.99744,7.92751,-0.105379,-28.8696,19.3481,-55.6641
55.019,-1.97828,7.82693,-0.0431149,-27.771,17.2729,-53.5278
55.024,-1.95913,7.80297,-0.0431149,-26.6113,15.3198,-51.1475
55.029,-1.95434,7.75987,-0.0718484,-25.2686,13.7329,-48.5229
55.034,-1.88728,7.75507,-0.0718484,-23.9868,12.3291,-45.8374
55.039,-1.84896,7.75987,-0.110166,-22.522,11.1694,-43.0298
55.043,-1.7771,7.79818,-0.167653,-20.9961,10.376,-40.1611
55.048,-1.72921,7.82213,-0.153281,-19.4702,9.8877,-37.1704
55.053,-1.67172,7.8844,-0.201183,-17.8223,9.76562,-34.0576
55.058,-1.57593,7.97063,-0.25866,-16.1743,9.8877,-30.8838
55.063,-1.50407,8.07122,-0.273032,-14.6484,10.1929,-27.6489
55.068,-1.46575,8.18138,-0.277819,-13.0615,10.8643,-24.4751
55.073,-1.39869,8.2245,-0.320934,-11.8408,11.6577,-21.2402
55.078,-1.31247,8.2724,-0.387995,-10.5591,12.8174,-17.7612
55.082,-1.23583,8.31072,-0.445472,-8.97217,14.3433,-14.0991
55.087,-1.14482,8.40652,-0.445472,-7.38525,15.9912,-10.1318
55.092,-1.10171,8.50711,-0.488587,-5.49316,17.8223,-5.7373
55.097,-1.03465,8.66997,-0.522118,-3.72314,19.8975,-1.28174
55.102,-1.00591,8.85199,-0.541277,-1.89209,22.0337,3.479
55.107,-1.02507,9.05797,-0.531692,0.244141,24.353,8.54492
55.112,-1.01069,9.27831,-0.555648,2.2583,26.4282,13.6108
55.117,-1.0586,9.54655,-0.546064,4.21143,28.4424,19.043
55.121,-1.14003,9.79084,-0.502959,5.92041,30.4565,24.292
55.126,-1.18793,9.96328,-0.445472,7.56836,32.3486,29.541
55.131,-1.20709,10.1357,-0.426313,9.27734,34.1187,35.0342
55.136,-1.24062,10.3656,-0.392783,11.2305,35.7056,40.7104
55.141,-1.33642,10.5812,-0.296978,13.3667,37.4146,46.4477
55.146,-1.38912,10.792,-0.301775,15.3198,39.0015,52.3682
55.151,-1.3939,11.0075,-0.277819,17.334,40.5884,58.1055
55.155,-1.46096,11.1704,-0.229927,19.043,41.8091,63.7817
55.161,-1.45618,11.2805,-0.234714,20.752,42.9077,69.397
55.166,-1.43701,11.3859,-0.239501,22.7051,44.1894,75.0122
55.171,-1.41785,11.5727,-0.25866,24.8413,45.5322,81.0547
55.176,-1.43222,11.8266,-0.25866,27.4048,46.936,87.4023
55.18,-1.41785,12.2002,-0.215555,30.2124,48.2178,93.8721
55.186,-1.42743,12.6074,-0.191599,33.02,49.3164,100.159
55.19,-1.49449,13.0481,-0.22513,35.4004,50.4761,106.384
55.196,-1.52803,13.4504,-0.220342,37.1704,51.3916,111.755
55.2,-1.56634,13.7522,-0.167653,38.3911,52.124,116.577
55.206,-1.66215,13.939,-0.134122,39.1235,52.6733,120.789
55.211,-1.74357,14.0252,-0.143697,39.3677,53.1616,124.573
55.215,-1.79626,13.939,-0.13891,39.3066,53.5889,127.93
55.221,-1.88728,13.7714,-0.110166,39.6729,53.833,130.92
55.225,-2.00703,13.6756,-0.100592,40.4663,54.0161,133.728
55.231,-2.04056,13.5175,-0.0239462,41.626,54.1382,136.353
55.235,-2.09804,13.4504,0.0526895,42.9077,54.0771,138.794
55.241,-2.17947,13.3498,0.0910074,44.0063,53.6499,140.991
55.245,-2.25132,13.3115,0.167653,45.105,53.0395,142.761
55.25,-2.40939,13.1966,0.296978,46.3867,51.6357,144.104
55.256,-2.54351,13.1103,0.455056,47.5464,50.1099,145.386
55.26,-2.70637,13.0385,0.584382,48.8892,47.9126,146.362
55.266,-2.89318,12.9762,0.737663,50.1099,44.9219,146.912
55.27,-3.05604,12.8996,0.953218,51.2085,41.2598,146.729
55.276,-3.17579,12.8852,1.08734,52.2461,37.1094,146.179
55.28,-3.3195,12.8229,1.23104,52.9785,32.3486,145.264
55.286,-3.38656,12.7463,1.36037,53.3447,27.2827,143.372
55.291,-3.48715,12.6218,1.44181,53.5278,21.9116,140.564
55.296,-3.54941,12.4302,1.50407,53.4058,16.5405,137.39
55.301,-3.56858,12.2002,1.5424,53.1616,11.1694,133.667
55.305,-3.559,12.0038,1.60466,52.9785,6.22558,129.7
55.311,-3.49673,11.8458,1.6334,52.8564,1.40381,125.122
55.315,-3.41051,11.6542,1.55197,52.5513,-2.74658,120.178
55.321,-3.34344,11.5296,1.51365,52.124,-6.53076,114.929
55.325,-3.23328,11.4099,1.44659,51.5137,-9.64355,109.375
55.331,-3.1231,11.2997,1.346,50.5981,-12.2681,103.76
55.336,-2.95546,11.247,1.21188,49.4995,-14.2212,98.0835
55.34,-2.77343,11.1991,1.05381,48.2788,-15.4419,92.2851
55.346,-2.61537,11.2662,0.924475,46.936,-16.2964,86.4868
55.35,-2.49082,11.3189,0.79515,45.105,-16.3574,80.5664
55.356,-2.3088,11.4147,0.646656,42.9687,-15.7471,74.646
55.36,-2.13157,11.4721,0.498162,40.4663,-14.3433,68.4814
55.365,-1.92081,11.5344,0.402367,37.2314,-11.7798,62.1338
55.37,-1.69088,11.5775,0.292191,33.5083,-8.17871,55.603
55.375,-1.46096,11.6063,0.153281,29.7241,-3.60107,48.9502
55.38,-1.2502,11.5536,0.0718484,25.8789,2.31934,42.7856
55.385,-1.06818,11.4769,-0.0239462,21.7285,9.46045,36.6211
55.39,-0.938846,11.4242,-0.0479022,17.4561,17.4561,30.6396
55.395,-0.843052,11.3668,-0.134122,13.2446,26.062,24.9023
55.399,-0.732876,11.2326,-0.129335,9.27734,35.3394,19.2871
55.404,-0.723291,11.1464,-0.17244,5.18799,45.0439,14.0381
55.409,-0.799937,11.0315,-0.148494,1.46484,54.8096,9.33838
55.414,-0.890944,10.9213,-0.162866,-2.2583,64.0869,5.31006
55.419,-1.07297,10.7488,-0.177227,-6.04248,72.3267,1.83106
55.424,-1.16877,10.677,-0.234714,-9.70459,80.2612,-2.01416
55.429,-1.14961,10.5716,-0.167653,-13.1836,87.8296,-6.04248
55.433,-1.2023,10.4423,-0.148494,-16.1133,95.581,-9.64355
55.438,-1.24541,10.3273,-0.134122,-18.7988,103.638,-12.5122
55.443,-1.34121,10.1693,-0.124538,-21.7285,111.572,-15.0146
55.448,-1.50407,10.0016,-0.0335306,-24.1089,119.08,-17.6392
55.453,-1.64298,9.87227,-0.00478728,-25.6958,126.038,-20.3247
55.458,-1.75794,9.73336,0.0670612,-26.9165,132.507,-22.8271
55.463,-1.89685,9.6136,0.124538,-27.9541,138.55,-25.3296
55.468,-2.0214,9.43638,0.17244,-28.8696,144.226,-27.4658
55.472,-2.12678,9.23519,0.186812,-29.2969,149.292,-29.1748
55.477,-2.28006,9.04359,0.229927,-29.541,153.809,-30.5786
55.482,-2.43334,8.84241,0.268245,-29.2969,157.41,-31.6772
55.487,-2.56746,8.63165,0.277819,-28.8086,160.034,-32.5317
55.492,-2.74948,8.47837,0.277819,-28.1372,161.987,-33.3252
55.497,-2.92193,8.30593,0.306563,-27.5879,163.208,-33.7524
55.502,-2.98419,8.16702,0.287404,-26.9165,163.574,-33.9355
55.507,-3.10394,7.99937,0.249086,-26.062,163.391,-33.8745
55.512,-3.23807,7.86525,0.25866,-25.0854,162.476,-33.6304
55.516,-3.34824,7.73112,0.25866,-23.9258,160.767,-33.2642
55.521,-3.37219,7.63053,0.277819,-22.7661,158.63,-32.5928
55.526,-3.43446,7.56826,0.234714,-21.3623,155.823,-31.7993
55.531,-3.48235,7.53952,0.22513,-20.0806,152.466,-30.8228
55.536,-3.51588,7.46288,0.186812,-18.6768,148.56,-29.7852
55.541,-3.53026,7.46767,0.134122,-17.334,144.104,-28.7476
55.546,-3.53984,7.44851,0.13891,-16.1133,139.16,-27.771
55.551,-3.48715,7.43415,0.143697,-15.1978,133.972,-26.7334
55.555,-3.49194,7.39103,0.13891,-14.0381,128.357,-25.5737
55.561,-3.47278,7.37666,0.105379,-12.8784,122.559,-24.231
55.565,-3.46319,7.36708,0.100592,-11.7187,116.76,-22.7661
55.571,-3.49194,7.41977,0.105379,-10.498,110.779,-21.2402
55.575,-3.49194,7.47725,0.162866,-9.09424,104.797,-19.7754
55.581,-3.48715,7.53473,0.182025,-7.44629,98.7549,-18.2495
55.586,-3.46799,7.62574,0.296978,-6.16455,92.7124,-16.6016
55.59,-3.43446,7.75507,0.387995,-4.88281,86.792,-15.1367
55.596,-3.39135,7.92751,0.440685,-3.60107,81.3599,-13.4888
55.6,-3.31471,7.98978,0.469428,-2.62451,76.416,-12.085
55.606,-3.19496,8.08079,0.464631,-2.19727,72.2656,-10.9863
55.61,-3.08957,8.12391,0.526905,-1.77002,69.0308,-10.0708
55.616,-2.89797,8.07122,0.632284,-0.793457,66.7725,-9.27734
55.62,-2.80696,8.10475,0.670602,0.671387,65.4297,-8.11768
55.625,-2.81175,8.15744,0.74246,2.50244,64.5142,-6.5918
55.631,-2.82612,8.27719,0.833467,4.21143,63.4155,-5.00488
55.635,-2.83571,8.4161,0.82868,5.49316,62.1948,-3.54004
55.641,-2.79259,8.56938,0.876573,6.34766,61.4014,-2.50244
55.645,-2.7399,8.72266,0.852626,6.7749,60.791,-1.70898
55.651,-2.62494,8.7035,0.823883,6.65283,60.852,-1.28174
55.655,-2.59141,8.67955,0.785565,6.53076,61.4624,-1.09863
55.661,-2.58662,8.62207,0.804724,6.53076,62.2559,-0.610352
55.666,-2.58662,8.59333,0.819096,7.20215,63.3545,0.183105
55.671,-2.58662,8.6556,0.823883,8.48389,64.3921,1.2207
55.676,-2.56746,8.81846,0.780778,9.64355,65.2466,2.50244
55.68,-2.5962,9.03401,0.766406,10.6201,65.7349,3.35693
55.686,-2.61537,9.17772,0.756822,11.1084,66.1621,4.08936
55.69,-2.6489,9.32141,0.96759,11.5967,66.2842,4.69971
55.696,-2.71595,9.47469,1.10171,12.5732,65.979,5.67627
55.7,-2.8405,9.67109,1.35559,14.2212,64.7583,6.65283
55.706,-2.92193,9.99681,1.62862,16.1743,62.6221,7.93457
55.711,-3.01772,10.3656,1.79626,17.7002,60.2417,9.09424
55.715,-3.01772,10.7584,1.86812,18.6157,57.4951,9.8877
55.721,-2.93629,11.0554,1.84896,18.6768,54.6875,10.1318
55.725,-2.91234,11.247,1.75794,18.3105,52.3682,10.0098
55.731,-2.83571,11.2901,1.66215,17.8223,50.415,9.8877
55.735,-2.75428,11.2949,1.5376,17.6392,49.0112,9.64355
55.741,-2.73032,11.2566,1.47534,17.8223,47.9126,9.58252
55.745,-2.76385,11.2231,1.3939,18.6157,46.5698,9.8877
55.75,-2.79738,11.3524,1.36995,19.7144,45.105,10.9253
55.755,-2.85487,11.5009,1.35559,20.9351,43.0908,11.7187
55.76,-2.95066,11.6733,1.43701,21.9116,40.4663,12.6953
55.765,-3.01294,11.8649,1.4897,22.3999,37.1094,13.6719
55.77,-3.07041,12.0709,1.56634,22.9492,33.4473,14.1602
55.775,-3.10874,12.2769,1.65735,23.3765,29.7241,14.7095
55.78,-3.14227,12.4445,1.70525,23.8647,25.8179,15.5029
55.785,-3.15663,12.6649,1.73878,24.5361,21.8506,16.2354
55.79,-3.14706,12.9331,1.7819,25.2075,17.5781,17.1509
55.794,-3.18059,13.2301,1.81063,25.6348,13.1836,17.6392
55.799,-3.14227,13.5606,1.79147,26.062,8.48389,18.1885
55.804,-3.1231,13.8336,1.83459,26.062,4.02832,18.4326
55.809,-3.15185,14.0779,1.90165,25.6348,-0.671387,18.3105
55.814,-3.16143,14.2599,1.825,24.8413,-5.24902,17.9443
55.819,-3.16622,14.3318,1.79626,23.6206,-9.58252,17.334
55.824,-3.18059,14.3366,1.825,22.3389,-13.6719,16.5405
55.829,-3.15185,14.351,1.7771,21.1182,-17.6392,16.0522
55.833,-3.1279,14.3462,1.77231,20.2026,-21.3013,15.8081
55.838,-3.15185,14.2935,1.80106,19.5923,-24.7803,15.3809
55.843,-3.15663,14.3031,1.81063,18.7988,-28.0762,14.7705
55.848,-3.15185,14.327,1.88249,17.6392,-31.25,14.0991
55.853,-3.18059,14.2552,1.89685,16.1133,-33.6914,13.3057
55.858,-3.19016,14.1785,1.91602,14.4043,-35.8276,11.7187
55.863,-3.16622,14.0013,1.98787,12.3901,-37.5366,10.1929
55.867,-3.22369,13.7809,1.99744,10.376,-38.3911,8.17871
55.872,-3.26681,13.5223,2.00703,8.05664,-38.8794,5.79834
55.877,-3.30991,13.1726,2.0166,5.67627,-38.8794,3.05176
55.882,-3.34344,12.7846,2.0214,3.479,-38.4521,0.061035
55.887,-3.39613,12.4158,1.97828,1.2207,-37.7808,-3.17383
55.892,-3.44404,12.0278,1.9256,-0.732422,-36.9873,-6.34766
55.897,-3.42488,11.7069,1.91602,-2.56348,-36.438,-9.70459
55.902,-3.40093,11.3859,1.88728,-4.08936,-35.8276,-13.2446
55.906,-3.35782,11.1321,1.88249,-5.43213,-35.4614,-16.7236
55.911,-3.34344,10.95,1.84416,-6.89697,-35.1562,-20.2637
55.916,-3.28597,10.7536,1.78669,-8.66699,-34.9731,-24.1089
55.921,-3.171,10.6099,1.61903,-10.6201,-34.8511,-28.3813
55.926,-2.9794,10.4614,1.47534,-12.7563,-34.3628,-32.5928
55.931,-2.85965,10.4088,1.35079,-15.0757,-33.6914,-36.6821
55.936,-2.77822,10.3225,1.19272,-16.9678,-33.1421,-40.5884
55.941,-2.73512,10.3177,0.972377,-18.6157,-32.8369,-44.3115
55.946,-2.7399,10.3992,0.847839,-20.6909,-33.1421,-47.3022
55.95,-2.62973,10.5189,0.747247,-23.0713,-34.3018,-50.0488
55.956,-2.65847,10.7201,0.531692,-25.6958,-36.3159,-52.2461
55.961,-2.62973,10.9548,0.402367,-28.8696,-39.2456,-54.1992
55.965,-2.57704,11.2039,0.378411,-32.5317,-42.7856,-56.2744
55.971,-2.53872,11.4338,0.292191,-36.1328,-46.875,-57.9224
55.975,-2.51477,11.6685,0.201183,-39.3677,-51.6968,-59.021
55.981,-2.44292,12.0134,0.134122,-42.7856,-56.3354,-59.9976
55.985,-2.32796,12.3487,0.0862201,-46.6919,-60.9131,-60.9131
55.991,-2.22737,12.684,0.105379,-50.9033,-65.1245,-61.4014
55.995,-2.11719,12.7511,-0.0287433,-56.2134,-68.7256,-60.73
56,-1.98787,12.775,0,-60.1196,-72.0215,-60.3027
56.006,-1.80106,12.9618,0.0191589,-62.0117,-73.3032,-60.6689
56.01,-1.55197,13.2972,-0.124538,-64.4531,-72.937,-60.852
56.016,-1.5376,13.4983,-0.239501,-68.4204,-72.2046,-60.2417
56.02,-1.55197,13.5031,-0.114963,-72.998,-70.1904,-61.0352
56.026,-1.32205,13.4648,0.0574768,-75.8057,-65.7959,-64.4531
56.03,-1.04902,13.3738,0.210758,-76.416,-57.6782,-68.1152
56.035,-0.938846,13.254,0.364039,-75.8667,-46.2646,-70.7397
56.041,-1.1065,13.0912,0.421526,-74.8901,-32.5928,-73.1201
56.046,-1.37953,12.8948,0.392783,-73.8525,-19.165,-76.4771
56.051,-1.66215,12.7032,0.325721,-73.1812,-7.99561,-79.7729
56.055,-1.88728,12.5786,0.273032,-72.8149,-0.427246,-81.604
56.061,-1.9735,12.3918,0.263448,-73.3643,3.72314,-82.5195
56.065,-1.98307,12.0853,0.205971,-75.0122,5.7373,-83.374
56.071,-1.9256,11.7356,0.129335,-76.2329,6.28662,-84.7168
56.075,-1.825,11.429,-0.00478728,-76.0498,6.71387,-85.9375
56.081,-1.825,11.1368,-0.0718484,-74.1577,7.62939,-87.5244
56.086,-1.82022,10.9548,-0.0766455,-71.228,9.52148,-89.2334
56.09,-1.7819,10.8447,-0.0670612,-68.1763,12.207,-90.8203
56.096,-1.7771,10.7201,-0.0622739,-65.3076,15.8691,-92.4683
56.1,-1.79147,10.586,-0.0287433,-62.3169,19.9585,-94.2993
56.106,-1.76274,10.4567,0.00958437,-59.1431,23.7427,-95.8862
56.11,-1.83459,10.3656,0.0622739,-55.8472,27.2217,-97.1069
56.116,-1.91122,10.2938,0.100592,-52.9785,29.7241,-98.1445
56.12,-1.9735,10.2124,0.0910074,-50.4761,31.311,-98.999
56.125,-1.97828,10.0926,0.0910074,-48.2178,31.9824,-99.9756
56.131,-2.01182,9.94412,0.0766455,-46.2646,31.6772,-100.525
56.135,-2.03577,9.84832,0.0814328,-44.4336,30.6396,-100.952
56.141,-2.08846,9.69983,0.0622739,-42.6636,29.2358,-101.379
56.145,-2.08846,9.54176,0.0383179,-40.9546,27.6489,-101.501
56.15,-2.13157,9.43159,-0.0191589,-39.3677,25.6958,-101.257
56.155,-2.12678,9.29747,-0.0574768,-37.8418,23.4375,-100.952
56.16,-2.15552,9.19688,-0.162866,-36.3159,20.813,-100.525
56.165,-2.18426,9.10107,-0.201183,-34.9731,17.8833,-99.6704
56.17,-2.21779,9.01965,-0.244289,-33.7524,14.7095,-98.6938
56.175,-2.22737,8.97653,-0.234714,-32.7148,11.3525,-97.6562
56.18,-2.24174,8.96696,-0.268245,-31.7383,7.56836,-96.4355
56.185,-2.213,8.8999,-0.268245,-31.0059,3.72314,-94.9097
56.189,-2.24653,8.83284,-0.234714,-30.5786,-0.366211,-93.3227
56.194,-2.20821,8.74662,-0.234714,-30.2124,-4.5166,-91.8579
56.199,-2.15552,8.64123,-0.234714,-30.0903,-8.42285,-90.0879
56.204,-2.13157,8.58854,-0.210758,-29.7852,-12.3291,-88.0737
56.209,-2.08846,8.53585,-0.182025,-29.3579,-16.0522,-85.6934
56.214,-2.05493,8.50232,-0.215555,-28.8696,-19.5312,-83.2519
56.219,-2.00224,8.50232,-0.158069,-28.5645,-22.8271,-80.6274
56.224,-1.94954,8.42568,-0.0622739,-28.2593,-25.9399,-78.064
56.228,-1.90165,8.34425,-0.0766455,-28.1372,-28.7476,-75.6836
56.233,-1.84896,8.28677,-0.00958437,-28.0151,-30.8838,-73.0591
56.238,-1.75794,8.21013,-0.00478728,-27.71,-32.7148,-70.4346
56.243,-1.69568,8.08079,0.00958437,-27.3437,-33.8135,-67.688
56.248,-1.60946,8.02331,0.0526895,-26.8555,-34.1797,-64.9414
56.253,-1.49928,7.93231,0.00958437,-26.062,-33.8135,-62.1338
56.258,-1.43222,7.87962,0.0718484,-25.3296,-32.6538,-59.2041
56.263,-1.38432,7.81256,0.119751,-24.353,-31.0059,-56.2134
56.267,-1.33163,7.75028,0.167653,-23.3765,-28.8696,-53.2837
56.272,-1.31247,7.68322,0.229927,-22.522,-26.4893,-50.1709
56.277,-1.3029,7.61616,0.229927,-21.4844,-24.1089,-47.1802
56.282,-1.27415,7.55868,0.277819,-20.4468,-21.5454,-44.1894
56.287,-1.2502,7.46767,0.287404,-19.4092,-18.7988,-41.0767
56.292,-1.22146,7.47246,0.287404,-18.4937,-15.625,-37.7197
56.297,-1.16877,7.47725,0.292191,-17.2119,-12.3901,-34.3628
56.301,-1.10171,7.51078,0.287404,-16.0522,-9.0332,-31.1279
56.306,-1.04423,7.52994,0.244289,-15.1367,-5.31006,-27.832
56.311,-1.02028,7.54431,0.210758,-14.5874,-1.52588,-24.7192
56.316,-0.958005,7.5539,0.153281,-14.1602,2.62451,-21.4844
56.321,-0.924475,7.55868,0.0910074,-13.4888,6.71387,-17.8833
56.326,-0.953218,7.59221,0.0479022,-12.6343,10.8032,-14.0991
56.331,-0.88137,7.67843,-0.0191589,-11.6577,15.0146,-10.2539
56.336,-0.82868,7.81734,-0.100592,-10.6812,19.043,-6.10351
56.34,-0.88137,8.0281,-0.0862201,-9.94873,22.8271,-1.77002
56.346,-0.857414,8.23407,-0.162866,-9.21631,26.7334,2.44141
56.35,-0.843052,8.44005,-0.205971,-8.66699,30.5176,6.95801
56.356,-0.843052,8.62686,-0.234714,-8.42285,33.9355,11.3525
56.36,-0.9149,8.82804,-0.229927,-8.05664,37.2925,15.9912
56.366,-0.962802,9.05318,-0.215555,-7.44629,40.7104,20.6909
56.37,-0.96759,9.24956,-0.229927,-7.20215,44.0674,25.1465
56.375,-0.991536,9.43638,-0.263448,-6.7749,47.3633,29.6631
56.381,-1.03465,9.60403,-0.301775,-6.71387,50.5981,34.0576
56.385,-1.04423,9.69983,-0.306563,-6.53076,53.9551,38.4521
56.391,-1.09213,9.82916,-0.320934,-5.92041,57.251,43.0908
56.395,-1.09691,9.99202,-0.349677,-5.00488,60.5469,47.8516
56.401,-1.14961,10.1549,-0.364039,-4.15039,63.6597,52.6123
56.405,-1.15919,10.3369,-0.407154,-3.479,66.4673,56.9458
56.41,-1.24541,10.471,-0.383208,-2.62451,69.2749,61.2793
56.416,-1.26457,10.5285,-0.402367,-2.01416,71.8994,65.7349
56.42,-1.28373,10.6147,-0.392783,-1.2207,74.3408,70.2515
56.426,-1.27894,10.7057,-0.407154,-0.061035,76.6602,74.646
56.43,-1.31247,10.8255,-0.450259,1.2207,78.8574,79.0405
56.436,-1.25499,11.0219,-0.455056,2.62451,80.9326,83.9233
56.44,-1.23104,11.2278,-0.560435,4.21143,83.0078,89.0503
56.446,-1.19751,11.5009,-0.622709,5.98144,85.022,94.2993
56.45,-1.22146,11.8553,-0.689771,7.87354,86.9751,99.5483
56.456,-1.27894,12.2146,-0.694558,9.39941,88.623,104.614
56.461,-1.346,12.5547,-0.766406,10.5591,89.9658,109.741
56.465,-1.45138,12.866,-0.761619,11.6577,90.8203,114.929
56.471,-1.5376,13.1774,-0.675399,13.1226,91.4307,119.934
56.475,-1.65735,13.484,-0.694558,14.2822,91.6138,125.061
56.481,-1.75794,13.8001,-0.680186,15.564,91.5527,130.066
56.485,-1.84896,14.054,-0.627497,16.7236,91.1255,134.644
56.491,-1.93518,14.2983,-0.560435,17.5781,90.4541,139.282
56.495,-2.03097,14.4707,-0.541277,18.6768,89.5386,143.86
56.5,-2.18426,14.6479,-0.512533,20.0195,88.2568,148.193
56.506,-2.33275,14.8012,-0.378411,21.5454,86.5478,152.161
56.51,-2.51956,14.8922,-0.277819,22.8882,84.2895,155.64
56.516,-2.73512,14.8491,-0.114963,23.8647,81.3599,158.447
56.52,-2.9315,14.6719,0.0479022,24.7192,78.0029,160.461
56.526,-3.13269,14.4084,0.220342,25.4517,74.2798,161.621
56.53,-3.34824,13.9965,0.359252,26.4893,70.3735,162.231
56.535,-3.559,13.5654,0.531692,27.832,66.1011,162.415
56.541,-3.76976,13.1678,0.713717,29.4189,61.5234,161.926
56.545,-3.91346,12.7846,0.847839,31.0669,56.7627,160.767
56.55,-4.10028,12.4062,1.00112,33.02,51.4526,159.058
56.555,-4.18171,11.9847,1.12566,34.9731,45.7764,156.921
56.56,-4.2344,11.6254,1.23104,36.9873,39.856,154.236
56.565,-4.21524,11.3428,1.36516,39.3066,33.8135,150.94
56.57,-4.2296,11.041,1.46575,41.5649,27.5879,147.156
56.575,-4.24397,10.8207,1.5376,43.9453,21.2402,142.761
56.579,-4.17212,10.6578,1.59509,46.1426,14.7705,138.306
56.584,-4.08112,10.5237,1.61425,48.4009,8.23975,133.301
56.589,-4.02363,10.5141,1.59029,50.5981,1.15967,128.052
56.594,-4.01406,10.5333,1.56634,52.124,-6.95801,122.803
56.599,-3.9949,10.5668,1.50407,53.1006,-15.8081,117.371
56.604,-3.85598,10.6291,1.37953,53.0395,-25.1465,111.633
56.609,-3.70749,10.6914,1.2502,52.2461,-34.4849,105.347
56.614,-3.46319,10.8255,1.09213,51.0864,-43.2129,98.6328
56.618,-3.14227,10.8878,0.866998,49.7436,-50.415,92.102
56.623,-2.85487,11.0123,0.704132,48.2178,-56.0303,85.6323
56.628,-2.52915,11.0794,0.493374,46.2646,-59.6313,79.5898
56.633,-2.29443,11.1416,0.249086,44.0674,-61.0962,73.5474
56.638,-2.07888,11.1943,0.0910074,41.4429,-60.9131,67.3828
56.643,-1.89206,11.2422,-0.00478728,38.4521,-58.8989,61.6455
56.648,-1.69088,11.2662,-0.229927,35.2783,-55.3589,56.2134
56.653,-1.52803,11.2758,-0.349677,31.7383,-50.7202,51.2085
56.658,-1.35079,11.2614,-0.411942,28.0762,-44.6167,46.7529
56.662,-1.14961,11.2949,-0.555648,24.292,-37.0483,42.7246
56.667,-0.958005,11.3045,-0.574807,20.5688,-28.0762,39.1235
56.672,-0.785565,11.2901,-0.546064,16.6626,-17.5171,35.9497
56.677,-0.684973,11.2805,-0.574807,13.0005,-5.98144,33.1421
56.682,-0.718504,11.3524,-0.502959,9.76562,6.28662,30.7007
56.687,-0.632284,11.4003,-0.378411,5.85938,19.6533,28.5645
56.692,-0.641868,11.4195,-0.287404,2.13623,33.1421,26.3672
56.697,-0.79515,11.4147,-0.0814328,-0.671387,46.3257,24.1089
56.701,-0.943634,11.4338,-0.0718484,-2.68555,58.4106,22.4609
56.706,-1.26457,11.3955,0.0239462,-5.06592,68.5425,21.6064
56.711,-1.57113,11.3332,0.13891,-7.38525,77.3926,20.2026
56.716,-1.67651,11.2183,0.210758,-9.58252,85.6323,17.7612
56.721,-1.68131,11.0602,0.34488,-11.3525,94.1772,15.3809
56.726,-1.71962,10.8686,0.531692,-12.6953,103.271,13.7329
56.731,-1.83937,10.6531,0.622709,-13.4888,112.854,12.3901
56.735,-2.00224,10.3944,0.622709,-13.4888,122.437,10.8032
56.741,-2.15072,10.1357,0.684973,-13.1226,132.08,9.27734
56.745,-2.3567,9.85311,0.708929,-12.3291,141.052,7.44629
56.75,-2.57225,9.60882,0.670602,-11.1694,148.743,5.7373
56.756,-2.73032,9.34537,0.632284,-10.0098,155.396,4.5166
56.76,-2.87403,9.1394,0.622709,-8.60596,161.011,3.54004
56.766,-3.03209,8.92863,0.565223,-7.01904,165.894,2.62451
56.77,-3.13269,8.73703,0.445472,-5.43213,169.739,1.89209
56.776,-3.23328,8.5598,0.407154,-3.90625,172.852,1.2207
56.78,-3.32907,8.40173,0.354465,-2.13623,175.232,0.488281
56.785,-3.38177,8.28197,0.25866,-0.671387,177.063,-0.305176
56.791,-3.47757,8.13349,0.229927,0.915527,177.978,-1.0376
56.795,-3.53984,8.04247,0.158069,2.50244,178.101,-1.77002
56.801,-3.66917,7.94668,0.0862201,3.84522,177.185,-2.56348
56.805,-3.77934,7.87482,0.0766455,5.12695,175.232,-3.35693
56.811,-3.86556,7.75028,0.0239462,6.28662,172.607,-4.3335
56.815,-3.95657,7.70238,0.0479022,7.32422,168.945,-5.43213
56.821,-3.9901,7.63053,0.0814328,8.54492,164.246,-6.40869
56.825,-4.03321,7.60179,0.100592,9.46045,159.18,-7.38525
56.831,-4.10506,7.60179,0.167653,10.3149,153.564,-8.23975
56.836,-4.14338,7.56826,0.17244,11.4136,147.461,-8.97217
56.84,-4.17212,7.56826,0.191599,12.207,140.991,-10.0098
56.846,-4.15775,7.60179,0.229927,13.0005,134.46,-10.9863
56.85,-4.16734,7.63053,0.282616,13.7329,128.052,-11.8408
56.856,-4.14818,7.69281,0.301775,14.1602,121.704,-12.6953
56.86,-4.11465,7.69281,0.301775,14.5264,115.662,-13.6108
56.866,-4.09548,7.70238,0.301775,15.1367,109.619,-14.4043
56.87,-4.07632,7.73591,0.349677,15.686,104.004,-15.1367
56.875,-4.05716,7.7934,0.421526,16.1133,98.3887,-15.625
56.881,-4.02843,7.87482,0.536489,16.7236,92.7124,-16.1743
56.885,-3.96137,7.985,0.694558,17.0898,87.4023,-16.7236
56.891,-3.76497,8.09516,0.843052,17.0898,82.9468,-17.6392
56.895,-3.58774,8.19097,0.96759,17.0288,79.5898,-18.7988
56.901,-3.42009,8.23887,1.02507,17.2119,77.0874,-19.7144
56.905,-3.30991,8.32509,1.07776,17.395,75.2563,-20.3247
56.91,-3.22849,8.40652,1.02985,17.395,73.7305,-20.6909
56.916,-3.11353,8.51669,0.977164,17.1509,72.937,-21.3013
56.92,-2.95066,8.66518,0.866998,17.1509,72.876,-21.8506
56.926,-2.82612,8.80409,0.790352,17.2119,73.5474,-22.3999
56.93,-2.68721,8.88553,0.699345,16.9678,74.585,-22.9492
56.936,-2.61057,8.97653,0.589179,17.2119,76.0498,-23.3154
56.94,-2.61537,9.15376,0.661027,18.0054,77.5146,-23.0103
56.945,-2.69679,9.422,0.752035,19.165,78.3081,-22.2168
56.95,-2.80218,9.73336,0.953218,20.1416,78.3081,-21.5454
56.955,-2.87403,10.0064,1.14961,20.6909,77.7588,-21.1182
56.96,-2.94587,10.289,1.37474,20.9961,76.5381,-21.0571
56.965,-3.00335,10.5333,1.50887,20.874,75.0122,-21.3013
56.97,-3.01772,10.7057,1.67651,21.0571,73.1812,-21.3013
56.975,-3.02251,10.8973,1.96391,21.4844,70.9229,-21.3623
56.979,-3.09916,11.1225,2.14115,22.0947,68.6035,-21.3013
56.984,-3.07521,11.338,2.11719,22.3999,66.2842,-21.2402
56.989,-2.99856,11.5105,2.04056,22.0947,64.0869,-21.6675
56.994,-2.91713,11.6446,1.92081,21.7285,62.2559,-22.2778
56.999,-2.87403,11.6685,1.7771,21.4233,60.852,-22.9492
57.004,-2.82134,11.6446,1.65735,21.5454,59.7534,-23.0713
57.009,-2.78301,11.75,1.51844,22.2778,58.5327,-22.8882
57.013,-2.85007,11.8889,1.47054,23.1934,56.9458,-22.2778
57.018,-2.93629,12.0757,1.49928,24.1699,54.8096,-21.4844
57.023,-3.02731,12.3439,1.51365,25.0854,52.063,-20.874
57.028,-3.09437,12.5882,1.61903,25.3906,48.4619,-20.2637
57.033,-3.20932,12.7846,1.71004,24.9634,44.1284,-19.4702
57.038,-3.22369,12.9714,1.78669,24.5361,39.4897,-18.9209
57.043,-3.27638,13.1343,1.89685,24.231,34.4849,-18.4326
57.048,-3.32429,13.3451,1.91602,23.9258,29.2969,-18.1274
57.052,-3.30991,13.4887,1.98787,23.3765,23.9868,-17.8833
57.057,-3.34824,13.6516,2.05972,22.8271,18.7378,-17.8223
57.062,-3.34344,13.7522,2.09804,22.2778,13.3057,-17.9443
57.067,-3.3195,13.8001,2.14115,21.5454,7.99561,-18.1885
57.072,-3.34824,13.848,2.10762,20.3857,2.68555,-18.7378
57.077,-3.30513,13.872,2.13635,19.165,-2.56348,-19.3481
57.082,-3.27638,13.8336,2.0166,18.0664,-7.62939,-19.9585
57.087,-3.22369,13.8049,2.0166,16.7847,-12.4512,-20.3247
57.092,-3.15663,13.8097,2.00703,15.8691,-16.9067,-20.5688
57.096,-3.13747,13.8288,1.97828,15.0757,-21.3623,-20.6299
57.101,-3.16622,13.8959,2.03097,14.2822,-25.7568,-20.5688
57.106,-3.16622,13.939,2.07888,13.1836,-30.2124,-20.752
57.111,-3.10874,13.9869,2.19384,11.4746,-34.6069,-21.1792
57.116,-3.11831,13.9246,2.29443,9.64355,-38.7573,-21.8506
57.121,-3.11353,13.8863,2.36149,7.32422,-42.6636,-22.8882
57.126,-3.14227,13.733,2.46208,4.69971,-46.1426,-24.231
57.131,-3.171,13.4744,2.48124,1.70898,-49.1943,-25.7568
57.135,-3.171,13.1822,2.44292,-1.52588,-51.6357,-27.9541
57.141,-3.1279,12.7655,2.35191,-4.82178,-53.2227,-30.5176
57.145,-3.1231,12.387,2.19863,-8.17871,-54.1992,-33.02
57.151,-3.09916,11.9607,1.9735,-11.2305,-54.6265,-35.7666
57.155,-3.05125,11.5296,1.81063,-14.1602,-54.5044,-38.4521
57.16,-3.02731,11.2278,1.734,-16.2964,-54.4434,-40.8936
57.166,-2.94109,10.9596,1.70525,-18.0664,-54.6265,-43.2739
57.17,-2.82134,10.8303,1.6334,-19.7754,-55.1147,-45.4102
57.176,-2.76865,10.8159,1.52803,-21.1792,-55.9082,-47.5464
57.18,-2.67284,10.8303,1.46096,-23.1323,-56.8237,-49.4385
57.186,-2.46687,10.9596,1.40827,-25.0244,-57.9834,-51.3916
57.19,-2.29922,11.156,1.42743,-27.0996,-59.2651,-52.8564
57.196,-2.23694,11.4721,1.33163,-29.2358,-60.6689,-54.2602
57.2,-2.11241,11.8122,1.24062,-32.1655,-61.7676,-56.2134
57.206,-1.99266,12.1763,1.16398,-35.7666,-62.6831,-58.5937
57.211,-1.86812,12.5259,1.16877,-39.3066,-64.0259,-60.73
57.215,-1.80584,12.6888,1.02028,-44.7388,-65.979,-61.4014
57.221,-1.80106,12.6744,0.895741,-50.5981,-69.3359,-61.0352
57.225,-1.70525,12.6744,0.747247,-54.3823,-72.8149,-61.3403
57.231,-1.38432,13.0241,0.565223,-55.7861,-74.9512,-62.8052
57.235,-1.10171,13.4217,0.239501,-58.7158,-76.2939,-62.3169
57.241,-1.02028,13.6612,0.129335,-63.9038,-77.3926,-61.4014
57.245,-0.895741,13.8241,0.182025,-69.0918,-76.355,-63.2324
57.25,-0.546064,13.9246,0.210758,-72.4487,-71.5332,-66.8945
57.256,-0.220342,13.9773,0.31135,-73.9746,-62.6831,-69.2139
57.26,-0.182025,14.0013,0.373624,-74.7681,-50.4761,-70.6787
57.266,-0.34488,14.0061,0.435898,-75.3174,-36.9263,-72.3267
57.27,-0.665815,14.0061,0.426313,-75.7446,-24.6582,-74.0356
57.276,-1.00591,14.0157,0.373624,-76.8433,-15.9912,-75.0732
57.28,-1.25978,13.9294,0.474215,-79.6509,-10.6201,-75.3784
57.285,-1.33163,13.733,0.565223,-83.7402,-7.38525,-76.1108
57.291,-1.22146,13.4552,0.560435,-87.7685,-4.94385,-77.3315
57.295,-1.10171,13.0145,0.522118,-90.332,-2.50244,-78.4912
57.301,-1.17835,12.6074,0.493374,-91.1865,0.427246,-79.6509
57.305,-1.24541,12.1763,0.502959,-90.5762,4.15039,-80.9326
57.311,-1.346,11.8458,0.455056,-88.8672,8.42285,-82.2143
57.315,-1.38912,11.5057,0.455056,-87.1582,13.2446,-83.4961
57.321,-1.39869,11.2422,0.493374,-85.2051,18.3716,-84.7168
57.325,-1.3939,10.9836,0.493374,-82.7026,24.0479,-85.8154
57.331,-1.39869,10.7201,0.479003,-80.1392,29.8462,-86.792
57.335,-1.47534,10.4806,0.445472,-77.5146,35.4004,-87.5854
57.34,-1.53281,10.2459,0.4311,-74.7681,40.9546,-88.501
57.345,-1.56634,10.0208,0.4311,-72.2046,45.3491,-89.1724
57.35,-1.61425,9.83874,0.426313,-69.7021,49.1943,-89.6606
57.355,-1.59029,9.64235,0.411942,-67.1997,52.3682,-90.1489
57.36,-1.64778,9.50344,0.349677,-65.0024,55.1147,-90.4541
57.365,-1.68131,9.34537,0.292191,-62.6831,57.251,-90.5762
57.37,-1.69088,9.19209,0.249086,-60.2417,58.8989,-90.6372
57.374,-1.70047,9.06275,0.182025,-57.8003,60.1196,-90.6982
57.379,-1.7771,8.91906,0.13891,-55.603,60.791,-90.6372
57.384,-1.83459,8.82325,0.0766455,-53.3447,60.9131,-90.332
57.389,-1.85853,8.72745,0.0574768,-51.3306,60.3027,-89.7217
57.394,-1.9735,8.6604,-0.0335306,-49.3164,59.1431,-88.9892
57.399,-2.03577,8.58375,-0.0622739,-47.4853,57.312,-88.1348
57.404,-2.08366,8.52627,-0.0910074,-45.8374,54.9316,-86.9141
57.409,-2.11719,8.48795,-0.0574768,-44.6777,51.8799,-85.6323
57.413,-2.20341,8.44005,-0.0766455,-43.457,48.5229,-84.1675
57.418,-2.2609,8.37778,-0.124538,-42.3584,44.6777,-82.4585
57.423,-2.27048,8.34425,-0.124538,-41.5649,40.6494,-80.5664
57.428,-2.29922,8.32988,-0.119751,-40.5884,36.499,-78.4912
57.433,-2.3567,8.29156,-0.114963,-39.7949,32.1045,-76.1719
57.438,-2.36149,8.28677,-0.0862201,-39.2456,27.4658,-73.9746
57.443,-2.33754,8.23887,-0.0574768,-38.5742,22.8882,-71.5942
57.447,-2.3567,8.18618,-0.0766455,-38.3911,18.1885,-69.2139
57.452,-2.31359,8.19097,-0.0766455,-38.147,13.855,-66.9556
57.457,-2.2561,8.076,-0.0670612,-37.8418,9.76562,-64.6973
57.462,-2.18905,7.98021,-0.0526895,-37.4756,6.16455,-62.1948
57.467,-2.10762,7.91315,0.0239462,-36.9873,2.92969,-59.6924
57.472,-2.08366,7.84609,-0.0239462,-36.3159,0.12207,-57.1899
57.477,-1.9735,7.7455,0.0191589,-35.5225,-2.07519,-54.6265
57.482,-1.82022,7.75507,0.00478728,-34.9731,-3.54004,-52.1851
57.486,-1.72441,7.66406,0.0335306,-34.4849,-4.15039,-49.8657
57.491,-1.61903,7.63532,0.00958437,-33.6304,-3.96728,-47.6074
57.496,-1.52323,7.5539,0.0191589,-32.7148,-2.68555,-45.4712
57.501,-1.40827,7.45809,0.0718484,-31.7993,-0.793457,-43.1519
57.506,-1.36995,7.39582,0.0383179,-30.7617,1.46484,-40.7104
57.511,-1.32684,7.36708,0.0526895,-29.4189,3.96728,-38.269
57.516,-1.31726,7.32397,-0.0143716,-28.1982,6.7749,-35.8276
57.521,-1.2981,7.31439,-0.00478728,-26.9775,9.76562,-33.5083
57.526,-1.29331,7.31439,0.0335306,-25.5737,12.6343,-31.0669
57.53,-1.23583,7.33355,0.0670612,-24.1089,15.8691,-28.5034
57.536,-1.18793,7.42456,0.0383179,-22.7051,19.165,-25.8179
57.541,-1.15919,7.48204,-0.00958437,-21.5454,22.583,-23.4375
57.546,-1.14003,7.53473,-0.0574768,-20.6299,26.001,-21.0571
57.551,-1.13524,7.5491,-0.0526895,-19.7754,29.2969,-18.4326
57.555,-1.1065,7.58743,-0.105379,-18.8599,32.5928,-15.686
57.561,-1.12566,7.63053,-0.162866,-17.7612,35.4614,-12.5122
57.565,-1.1544,7.72634,-0.220342,-16.5405,38.147,-9.15527
57.571,-1.12566,7.84129,-0.244289,-15.625,41.0156,-5.85938
57.575,-1.11129,7.98978,-0.277819,-14.7095,43.457,-2.31934
57.581,-1.13045,8.08079,-0.296978,-13.855,45.7764,1.46484
57.586,-1.1065,8.19097,-0.354465,-13.2446,47.9736,5.43213
57.59,-1.09213,8.29635,-0.354465,-12.4512,49.8657,9.46045
57.596,-1.1065,8.37778,-0.373624,-11.7798,51.6357,13.855
57.6,-1.13524,8.52627,-0.359252,-10.8643,53.2837,18.4326
57.606,-1.19751,8.70829,-0.335306,-9.8877,54.7485,23.1934
57.61,-1.2502,8.85199,-0.335306,-8.91113,56.0303,28.3203
57.616,-1.26936,9.01485,-0.34488,-8.05664,57.1899,33.3252
57.62,-1.32205,9.21603,-0.325721,-7.01904,58.2886,38.3301
57.625,-1.33163,9.41722,-0.320934,-5.98144,59.4482,43.5791
57.631,-1.35559,9.64235,-0.287404,-4.69971,60.5469,49.1333
57.636,-1.36995,9.89143,-0.287404,-3.41797,61.7065,54.5654
57.641,-1.38912,10.1357,-0.325721,-2.44141,63.0493,59.6924
57.645,-1.3939,10.2746,-0.368836,-1.89209,64.6973,64.5142
57.651,-1.3939,10.3465,-0.373624,-1.28174,66.3452,69.397
57.655,-1.35079,10.4135,-0.411942,-0.549316,68.3594,74.2188
57.661,-1.34121,10.4375,-0.450259,0.549316,70.7397,79.3457
57.666,-1.33163,10.5333,-0.531692,1.95312,73.1812,84.6558
57.671,-1.29331,10.7057,-0.589179,3.54004,75.6226,90.1489
57.676,-1.27415,10.8973,-0.617912,5.37109,78.2471,95.7031
57.68,-1.23583,11.156,-0.708929,7.01904,80.9326,101.379
57.686,-1.22146,11.5009,-0.771194,8.97217,83.6792,107.239
57.69,-1.20709,11.8266,-0.799937,10.7422,86.3037,112.976
57.696,-1.17356,12.2433,-0.833467,12.4512,88.8672,118.835
57.7,-1.22625,12.6649,-0.847839,14.0991,91.2476,124.878
57.706,-1.2981,13.0624,-0.82868,15.7471,93.3227,130.798
57.711,-1.40827,13.5223,-0.785565,17.334,95.1538,136.414
57.715,-1.52323,13.9438,-0.737663,18.6768,96.6186,141.846
57.721,-1.67172,14.3126,-0.632284,19.7144,97.7173,147.095
57.725,-1.81063,14.624,-0.565223,20.813,98.5107,152.161
57.73,-1.91602,14.9306,-0.493374,21.9727,98.999,156.86
57.735,-2.03097,15.1365,-0.464631,23.0713,99.3042,160.889
57.74,-2.16031,15.2323,-0.392783,23.6206,99.3042,164.246
57.745,-2.33754,15.1174,-0.31135,23.7427,98.938,167.236
57.75,-2.52435,14.9353,-0.292191,23.8037,98.4497,169.678
57.755,-2.65847,14.6815,-0.210758,24.4751,97.7173,171.814
57.76,-2.85007,14.3557,-0.0622739,25.6348,96.8628,173.645
57.765,-3.03209,14.0779,0.0431149,26.9775,95.581,175.293
57.769,-3.29075,13.7905,0.210758,28.3203,93.8721,176.453
57.774,-3.55421,13.4935,0.340093,29.7241,91.7358,176.758
57.779,-3.77455,13.187,0.536489,31.0059,88.8061,176.392
57.784,-4.00926,12.8613,0.708929,32.2876,85.2051,175.476
57.789,-4.22003,12.5403,0.843052,33.6304,80.8716,174.011
57.794,-4.42121,12.2529,1.06818,35.2783,76.0498,172.363
57.799,-4.56969,12.023,1.22146,37.1704,70.4346,170.166
57.804,-4.69424,11.908,1.37953,39.2456,64.209,167.48
57.808,-4.75651,11.8506,1.48491,41.1377,57.373,164.246
57.813,-4.80441,11.8697,1.54718,42.9687,50.1099,160.278
57.818,-4.77566,11.9655,1.57593,44.3115,42.7246,155.579
57.823,-4.69903,11.9895,1.58071,44.9219,35.3394,150.085
57.828,-4.65113,12.0613,1.52803,45.3491,27.9541,144.165
57.833,-4.56012,12.1236,1.42265,45.5322,20.752,137.817
57.838,-4.40204,12.2146,1.346,45.3491,13.855,130.981
57.843,-4.2775,12.3008,1.17356,45.105,7.26318,123.901
57.847,-4.06675,12.3823,1.01069,44.3115,1.2207,116.516
57.852,-3.78892,12.4924,0.866998,43.5181,-4.02832,108.826
57.857,-3.56379,12.5882,0.684973,42.2974,-8.60596,101.196
57.862,-3.34824,12.6888,0.502959,40.6494,-12.085,93.689
57.867,-3.09437,12.7319,0.325721,38.6963,-14.4653,85.9375
57.872,-2.84528,12.7223,0.148494,36.0718,-15.625,78.186
57.877,-2.52915,12.7128,-0.0574768,33.2031,-15.3809,70.4956
57.881,-2.28006,12.6505,-0.201183,29.9072,-13.4277,62.9883
57.886,-2.13635,12.5547,-0.282616,26.3061,-9.64355,55.9082
57.891,-1.89685,12.4062,-0.364039,22.522,-4.27246,49.0723
57.896,-1.75315,12.2673,-0.387995,18.7378,2.68555,42.3584
57.901,-1.60946,12.1044,-0.426313,14.7705,10.9863,36.1938
57.906,-1.49449,11.9368,-0.48379,10.9863,20.3857,30.5176
57.911,-1.40348,11.7595,-0.512533,7.50732,30.4565,25.2686
57.916,-1.39869,11.6158,-0.493374,4.08936,41.3208,20.5688
57.921,-1.40827,11.4817,-0.392783,0.854492,52.3071,16.2964
57.926,-1.47534,11.3907,-0.349677,-2.07519,62.8662,12.6953
57.93,-1.62382,11.2374,-0.31135,-4.94385,72.8149,9.58252
57.936,-1.73878,11.0794,-0.22513,-8.23975,82.0312,5.92041
57.94,-1.75794,10.8973,-0.17244,-11.2915,91.1255,1.89209
57.946,-1.7771,10.6962,-0.0622739,-13.7329,100.586,-1.83106
57.95,-1.86812,10.4902,0.00958437,-15.7471,109.985,-4.76074
57.956,-1.96391,10.2603,0.153281,-17.4561,118.958,-7.26318
57.961,-2.1651,10.0256,0.25866,-18.8599,127.502,-9.94873
57.965,-2.29922,9.81479,0.316147,-20.2637,135.376,-12.5122
57.971,-2.43334,9.58008,0.364039,-21.1182,142.639,-14.9536
57.975,-2.55788,9.35016,0.4311,-21.5454,149.231,-16.9678
57.981,-2.7399,9.06754,0.416729,-21.6064,154.907,-18.7378
57.985,-2.91234,8.82325,0.373624,-21.3623,159.668,-20.2637
57.991,-3.06084,8.62686,0.359252,-20.813,163.696,-21.4233
57.995,-3.19496,8.44963,0.373624,-20.3247,166.443,-22.2168
58,-3.30034,8.25324,0.364039,-19.4702,168.213,-22.8271
58.006,-3.42009,8.09038,0.316147,-18.8599,169.189,-23.2544
58.01,-3.5111,7.96104,0.301775,-18.2495,169.189,-23.2544
58.016,-3.58774,7.87482,0.215555,-17.4561,168.518,-23.2544
58.02,-3.64043,7.7455,0.22513,-16.7236,167.419,-23.0103
58.026,-3.68833,7.63532,0.182025,-15.9302,165.649,-22.522
58.03,-3.74581,7.55868,0.110166,-15.1978,163.208,-21.9727
58.036,-3.82724,7.48684,0.0622739,-14.6484,160.156,-21.1792
58.041,-3.85119,7.43893,0.0335306,-13.855,156.433,-20.4468
58.046,-3.92784,7.37187,0.0191589,-13.3667,152.344,-19.5923
58.051,-3.93741,7.32876,0.0431149,-12.6953,147.888,-18.7378
58.055,-3.92784,7.34792,-0.0479022,-12.0239,143.005,-17.8833
58.061,-3.88951,7.29044,-0.110166,-11.7187,138.184,-16.9067
58.065,-3.89431,7.25691,-0.162866,-11.3525,133.484,-15.9302
58.071,-3.87515,7.26649,-0.191599,-10.8032,128.601,-15.0757
58.075,-3.87515,7.25691,-0.17244,-10.0708,123.718,-13.916
58.081,-3.86556,7.32876,-0.201183,-9.27734,119.263,-12.8174
58.086,-3.82724,7.41019,-0.234714,-8.48389,114.868,-11.7187
58.09,-3.86077,7.47246,-0.110166,-7.20215,110.168,-10.8032
58.096,-3.83682,7.64969,0.0479022,-5.61523,105.652,-9.8877
58.1,-3.78413,7.89878,0.129335,-4.27246,101.746,-9.0332
58.106,-3.65959,8.15744,0.229927,-3.54004,98.4497,-8.72803
58.11,-3.52547,8.30593,0.335306,-2.80762,95.8862,-9.09424
58.116,-3.40572,8.41131,0.512533,-1.40381,94.1162,-9.52148
58.12,-3.39613,8.52148,0.785565,0.366211,92.7124,-9.64355
58.125,-3.4153,8.66518,0.919687,2.01416,91.1865,-9.52148
58.13,-3.35782,8.8999,0.958005,3.17383,89.7217,-10.0098
58.135,-3.23807,9.08191,0.871785,3.41797,88.8672,-11.1694
58.14,-3.05604,9.15376,0.708929,3.23486,89.1724,-12.9395
58.145,-2.86923,9.10587,0.536489,2.74658,90.8813,-14.7705
58.15,-2.71595,8.98132,0.34488,2.68555,93.75,-16.4185
58.155,-2.70159,8.86157,0.205971,3.35693,97.229,-17.9443
58.159,-2.72074,8.7514,0.148494,4.5166,100.952,-19.104
58.164,-2.77343,8.78493,0.0766455,6.28662,104.126,-19.9585
58.169,-2.82612,8.82804,0.110166,8.23975,106.567,-20.752
58.174,-2.91234,8.90947,0.335306,10.5591,107.544,-21.6675
58.179,-3.09916,9.07234,0.790352,13.1836,106.873,-22.2778
58.184,-3.26681,9.31184,1.23583,15.9302,104.675,-22.583
58.189,-3.40093,9.6184,1.61903,18.6157,101.135,-23.0103
58.194,-3.47757,9.99202,1.825,20.1416,96.8628,-23.5596
58.199,-3.45362,10.3225,1.95913,21.1182,92.2241,-24.6582
58.203,-3.44883,10.5477,2.03577,21.9116,87.3413,-25.8179
58.208,-3.41051,10.6914,2.10282,22.583,82.3975,-26.6113
58.213,-3.35303,10.8111,2.0693,23.8647,77.0264,-26.9165
58.218,-3.38177,11.0075,2.03097,25.3906,71.167,-26.7334
58.223,-3.4153,11.2278,2.05972,26.9775,64.5752,-26.4893
58.228,-3.40093,11.4242,2.10282,28.4424,57.373,-26.062
58.233,-3.4153,11.6973,2.03577,29.4189,49.6216,-25.3906
58.238,-3.38177,11.9128,2.05013,30.2124,41.8091,-24.8413
58.242,-3.32907,12.114,2.05972,30.6396,33.8745,-23.9868
58.247,-3.29555,12.32,2.08846,31.25,25.8789,-22.7661
58.252,-3.22849,12.502,2.12678,31.7383,18.0054,-21.3623
58.257,-3.18538,12.6936,2.17468,32.2876,10.2539,-20.0195
58.262,-3.20932,12.89,2.20341,31.9214,2.74658,-18.6157
58.267,-3.18538,12.9714,2.2609,31.25,-4.21143,-17.334
58.272,-3.11831,13.0385,2.29443,30.4565,-10.7422,-16.2354
58.277,-3.06084,13.1439,2.31359,29.2969,-16.8457,-15.0757
58.281,-3.07041,13.1534,2.31359,28.1982,-22.3999,-14.0381
58.286,-2.96982,13.1247,2.32796,27.1606,-27.4048,-13.0005
58.291,-2.8836,13.1439,2.33275,25.9399,-31.9824,-11.9019
58.296,-2.75906,13.1439,2.35191,24.9634,-36.1938,-10.7422
58.301,-2.6489,13.1487,2.28485,23.9258,-40.0391,-9.64355
58.306,-2.58662,13.1726,2.2561,22.7051,-43.5181,-8.60596
58.311,-2.51477,13.1726,2.28963,21.4233,-46.6309,-7.62939
58.315,-2.42376,13.1966,2.32316,20.1416,-49.1943,-6.7749
58.321,-2.32316,13.1678,2.39981,18.4937,-51.2085,-6.34766
58.325,-2.20821,13.0672,2.40939,16.6016,-52.1851,-6.34766
58.331,-2.11719,12.9283,2.31838,14.4653,-52.2461,-6.46973
58.336,-1.98307,12.7223,2.25132,12.3901,-51.3306,-6.7749
58.34,-1.88728,12.5212,2.10282,10.9863,-49.3164,-6.95801
58.346,-1.80106,12.3679,1.96871,9.8877,-46.4477,-6.7749
58.35,-1.82022,12.2721,1.81063,9.0332,-43.457,-6.04248
58.356,-1.84416,12.2146,1.71484,8.66699,-40.4053,-5.12695
58.36,-1.95434,12.2817,1.71004,8.36182,-37.9639,-3.84522
58.366,-2.16988,12.3966,1.71962,7.75146,-36.6211,-2.2583
58.37,-2.42376,12.4924,1.77231,6.65283,-36.8042,-1.09863
58.375,-2.74948,12.5116,1.88249,4.94385,-38.269,-0.12207
58.381,-2.98899,12.4637,1.96391,2.62451,-40.8936,0.061035
58.385,-3.14706,12.3343,2.04056,0.061035,-44.0674,-0.183105
58.391,-3.27638,12.1763,2.13157,-2.31934,-47.3022,-0.793457
58.395,-3.33866,11.9224,2.22258,-4.57764,-50.5371,-1.28174
58.401,-3.44883,11.659,2.19384,-6.5918,-53.6499,-2.07519
58.405,-3.50631,11.3763,2.17947,-8.72803,-56.7627,-3.35693
58.411,-3.559,11.1081,2.07888,-10.5591,-60.1196,-5.18799
58.416,-3.57816,10.859,1.98307,-12.3291,-63.4155,-7.20215
58.421,-3.56858,10.6051,1.87291,-14.0991,-66.7725,-9.0332
58.426,-3.57337,10.4135,1.734,-15.686,-70.1294,-10.9863
58.43,-3.49194,10.2219,1.54718,-16.9678,-73.7305,-12.8784
58.436,-3.41051,10.107,1.41306,-18.1274,-77.1484,-14.9536
58.44,-3.28597,10.1261,1.35079,-19.2261,-80.0781,-17.0288
58.446,-3.07521,10.1309,1.16398,-20.3857,-82.5806,-18.9209
58.45,-2.89797,10.1549,1.04902,-21.7895,-84.6558,-20.6909
58.456,-2.77343,10.2794,0.929272,-23.4375,-86.3647,-22.3389
58.461,-2.63931,10.4519,0.809521,-25.2075,-88.1348,-24.353
58.465,-2.54351,10.5812,0.737663,-26.9165,-89.5386,-26.3061
58.471,-2.40939,10.7824,0.713717,-28.5645,-90.7593,-28.1982
58.475,-2.28485,11.0506,0.713717,-29.9683,-92.102,-29.9683
58.481,-2.19384,11.3716,0.684973,-31.3721,-93.3838,-31.4941
58.485,-2.07888,11.7212,0.684973,-33.2031,-94.4214,-32.8369
58.491,-2.0166,12.0661,0.661027,-35.4004,-95.2148,-34.3018
58.495,-1.89685,12.2242,0.661027,-38.8184,-95.2148,-35.2783
58.5,-1.66215,12.3966,0.637071,-41.3208,-94.3603,-36.499
58.506,-1.42743,12.6792,0.48379,-42.9687,-92.3462,-37.9639
58.51,-1.42743,12.9187,0.359252,-45.3491,-89.9658,-38.6963
58.516,-1.41785,13.0864,0.407154,-47.9736,-87.0972,-40.6494
58.52,-1.26457,13.2636,0.392783,-49.4995,-82.1533,-44.0063
58.525,-1.1065,13.3786,0.39757,-50.1099,-74.8291,-46.936
58.53,-1.03465,13.4504,0.392783,-51.0864,-66.04,-48.7061
58.535,-1.03944,13.4792,0.402367,-53.1006,-56.7627,-49.9878
58.54,-1.16877,13.3834,0.407154,-55.9692,-48.9502,-51.1475
58.545,-1.28373,13.163,0.296978,-58.7769,-43.1519,-52.063
58.55,-1.36037,12.9714,0.186812,-60.73,-39.1235,-53.2227
58.554,-1.36037,12.7367,0.119751,-62.1948,-35.5835,-54.6265
58.559,-1.27894,12.5451,0.0622739,-63.4766,-31.5552,-56.5186
58.564,-1.17356,12.3104,0.0526895,-64.209,-26.4893,-58.2886
58.569,-1.14961,11.9655,0.110166,-64.5142,-20.1416,-59.8755
58.574,-1.19751,11.6542,0.0574768,-64.0259,-13.1836,-61.0352
58.579,-1.32684,11.3476,0.148494,-63.1714,-6.53076,-62.0117
58.584,-1.45618,11.0937,0.191599,-62.0117,-0.549316,-63.0493
58.589,-1.57593,10.8542,0.215555,-60.852,4.5166,-64.27
58.593,-1.60466,10.6626,0.263448,-59.8144,9.0332,-65.6738
58.598,-1.62382,10.4471,0.287404,-58.5937,12.9395,-66.8945
58.603,-1.65256,10.2172,0.368836,-57.0068,16.2964,-67.9932
58.608,-1.69088,10.0399,0.459844,-55.481,19.3481,-69.0308
58.613,-1.74837,9.83874,0.455056,-53.833,21.8506,-69.8853
58.618,-1.7819,9.65672,0.459844,-52.1851,23.6816,-70.4956
58.623,-1.81543,9.53218,0.512533,-50.4761,24.9634,-71.228
58.628,-1.82979,9.41722,0.455056,-49.0112,25.4517,-72.1436
58.632,-1.83459,9.24956,0.426313,-47.7295,25.4517,-72.8149
58.637,-1.83937,9.11544,0.445472,-46.4477,25.3296,-73.2422
58.642,-1.88728,8.98612,0.416729,-44.9829,24.8413,-73.6084
58.647,-1.91122,8.89031,0.421526,-43.457,23.8647,-73.5474
58.652,-1.9256,8.86157,0.368836,-42.2363,22.644,-73.3032
58.657,-2.04056,8.77535,0.359252,-41.3208,20.9351,-72.937
58.662,-2.10282,8.75619,0.330509,-40.3442,18.9209,-72.3267
58.667,-2.18426,8.73224,0.335306,-39.3677,16.6626,-71.7773
58.672,-2.25132,8.68913,0.325721,-38.5742,14.0991,-70.8618
58.676,-2.26569,8.67476,0.368836,-37.9639,11.2915,-69.7632
58.681,-2.32316,8.69392,0.407154,-37.5366,8.11768,-68.4204
58.686,-2.37586,8.61249,0.402367,-37.2314,4.63867,-67.1387
58.691,-2.39981,8.57896,0.435898,-37.1704,1.09863,-65.5518
58.696,-2.41897,8.5598,0.507746,-37.1094,-2.44141,-63.9038
58.701,-2.40939,8.50711,0.512533,-36.9873,-6.04248,-62.1338
58.706,-2.37107,8.45921,0.517321,-36.8042,-9.82666,-60.4248
58.711,-2.32316,8.4161,0.526905,-36.8652,-13.1226,-58.4717
58.715,-2.28485,8.36819,0.502959,-36.6821,-15.9912,-56.4575
58.721,-2.2609,8.34425,0.526905,-36.6821,-18.7988,-54.4434
58.725,-2.16031,8.29635,0.589179,-36.6211,-20.9961,-52.5513
58.731,-2.10282,8.23407,0.555648,-36.3159,-22.7661,-50.5371
58.735,-2.04056,8.13828,0.502959,-36.0718,-24.1699,-48.584
58.741,-1.96391,8.16222,0.502959,-36.0107,-24.9634,-46.6919
58.745,-1.84896,8.12869,0.488587,-35.7666,-25.0854,-44.8608
58.75,-1.70047,8.10953,0.512533,-35.4004,-24.4751,-42.9687
58.756,-1.55676,8.12869,0.493374,-35.1562,-23.2544,-41.1987
58.76,-1.53281,8.09996,0.464631,-34.79,-21.9116,-39.1846
58.766,-1.49449,8.06643,0.479003,-34.6069,-20.0806,-37.4146
58.77,-1.47054,8.05685,0.4311,-34.2407,-18.0664,-35.5225
58.776,-1.42265,8.01853,0.488587,-34.1797,-15.7471,-33.6304
58.78,-1.33642,8.00416,0.435898,-33.9966,-13.0005,-31.9214
58.786,-1.24541,7.99937,0.387995,-33.7524,-9.94873,-30.2124
58.791,-1.2023,7.98978,0.34488,-33.7524,-6.34766,-28.5034
58.796,-1.15919,8.01374,0.335306,-33.3862,-2.19727,-26.5503
58.801,-1.11129,8.01853,0.253873,-33.02,2.07519,-24.5361
58.805,-1.08255,8.11432,0.191599,-32.4707,6.83594,-22.3999
58.811,-1.01069,8.16702,0.134122,-31.9214,11.5967,-20.2637
58.815,-0.981961,8.26282,0.0526895,-31.3721,16.3574,-17.8223
58.821,-0.929272,8.35383,-0.0143716,-31.1279,21.2402,-15.4419
58.825,-0.9149,8.5119,-0.0239462,-30.7007,25.9399,-12.8784
58.831,-0.953218,8.6604,-0.0574768,-30.2124,30.3345,-10.0708
58.836,-1.00591,8.81846,-0.100592,-29.6631,34.6069,-7.14111
58.84,-1.02507,8.98132,-0.0958045,-29.1748,38.8794,-4.15039
58.846,-1.02985,9.15856,-0.17244,-28.7476,42.7246,-1.0376
58.85,-1.05381,9.35974,-0.253873,-28.5034,46.5698,2.01416
58.856,-1.08255,9.58008,-0.316147,-28.1982,50.4761,5.06592
58.86,-1.01549,9.69025,-0.383208,-27.832,54.5654,8.23975
58.866,-1.00591,9.88665,-0.507746,-27.4048,58.7158,11.5356
58.87,-1.01069,10.0734,-0.589179,-26.7944,62.8662,14.9536
58.875,-1.00591,10.2555,-0.560435,-26.2451,67.0776,18.4937
58.881,-1.03465,10.4471,-0.613125,-25.3296,71.106,22.1558
58.885,-1.08734,10.6147,-0.728088,-24.4751,75.0732,25.6958
58.891,-1.12087,10.7393,-0.728088,-23.8037,79.0405,29.1138
58.895,-1.18793,10.8207,-0.699345,-23.0103,82.7637,32.2876
58.901,-1.24541,10.859,-0.665815,-22.1558,86.3037,35.4614
58.905,-1.27894,10.8303,-0.689771,-21.1792,89.7217,38.5742
58.911,-1.37474,10.7967,-0.699345,-20.0806,93.0786,41.9311
58.915,-1.42743,10.7393,-0.694558,-18.3105,96.0693,45.227
58.92,-1.48012,10.7057,-0.598753,-16.4795,98.6938,48.8281
58.925,-1.62862,10.6387,-0.541277,-14.2822,101.013,52.6123
58.93,-1.66693,10.6818,-0.450259,-11.7798,102.783,56.2744
58.935,-1.74357,10.7297,-0.392783,-9.09424,104.004,60.0586
58.94,-1.825,10.8207,-0.330509,-6.40869,104.98,64.209
58.945,-1.88249,10.974,-0.249086,-3.41797,105.53,68.5425
58.95,-1.93518,11.1177,-0.148494,-0.549316,105.408,72.6929
58.954,-2.0645,11.3093,-0.0958045,2.44141,105.041,76.5991
58.959,-2.16031,11.4578,0.0814328,5.37109,104.004,80.6274
58.964,-2.26569,11.6398,0.186812,8.30078,102.539,84.5337
58.969,-2.29922,11.7835,0.210758,10.8032,100.647,87.9517
58.974,-2.3567,11.8027,0.273032,12.8784,98.3887,91.0034
58.979,-2.41418,11.7548,0.282616,14.5874,95.8862,93.75
58.984,-2.40939,11.7212,0.282616,16.5405,93.2617,96.4966
58.988,-2.41418,11.6733,0.244289,18.4326,91.0034,99.2432
58.993,-2.39502,11.6111,0.215555,20.6909,88.9282,102.173
58.998,-2.39502,11.6494,0.186812,23.0713,87.0972,104.797
59.003,-2.41418,11.7116,0.244289,25.3906,85.5102,107.361
59.008,-2.50519,11.75,0.239501,27.5879,83.9233,109.924
59.013,-2.6489,11.8553,0.330509,29.602,81.7871,111.877
59.018,-2.74948,11.8122,0.507746,31.1279,79.1016,113.281
59.023,-2.89318,11.7548,0.651443,32.2266,76.2329,114.197
59.027,-3.00335,11.6637,0.780778,33.2642,73.3643,114.746
59.032,-3.13269,11.5153,0.924475,34.3628,70.0684,114.929
59.037,-3.22369,11.3716,1.09691,35.5225,66.4673,115.112
59.042,-3.30034,11.2422,1.27415,36.8652,62.8052,115.051
59.047,-3.38177,11.156,1.40827,38.269,58.8379,114.441
59.052,-3.43446,11.0698,1.58071,39.6118,54.6875,113.403
59.057,-3.44404,11.0458,1.71484,40.7104,50.6592,112.183
59.062,-3.4153,11.0219,1.78669,41.626,46.5088,110.535
59.067,-3.42009,10.9788,1.81543,42.1143,42.4805,108.459
59.071,-3.40093,10.9069,1.76753,42.4194,38.9404,105.835
59.076,-3.35782,10.8926,1.734,42.7856,35.8887,103.088
59.081,-3.24765,10.8734,1.67651,43.2129,33.4473,100.037
59.086,-3.22369,10.9069,1.57593,43.2129,31.311,96.9849
59.091,-3.14227,10.95,1.44181,42.9687,29.1138,93.689
59.096,-3.09916,11.0315,1.32684,42.5415,27.4658,90.1489
59.101,-3.03688,11.1273,1.22625,41.5039,25.9399,86.4258
59.106,-2.96503,11.1895,1.08734,40.1001,24.4751,82.2754
59.11,-2.90276,11.2374,0.972377,38.3911,23.2544,77.8809
59.116,-2.81654,11.2997,0.876573,36.3159,22.3999,73.4253
59.12,-2.692,11.3428,0.74246,34.0576,22.0337,69.0308
59.125,-2.5962,11.3907,0.608338,31.4941,22.2168,64.3921
59.131,-2.41418,11.4386,0.4311,28.6255,23.0713,59.6313
59.135,-2.25132,11.4769,0.34488,25.8789,24.7803,54.8096
59.141,-2.11241,11.4961,0.205971,23.0103,27.2217,50.1709
59.145,-1.98307,11.544,0.119751,20.0195,30.2734,45.7153
59.151,-1.84416,11.5967,0.0622739,16.9067,34.3018,40.9546
59.155,-1.71962,11.5775,-0.0143716,13.855,39.0015,36.3159
59.161,-1.59987,11.5871,-0.0143716,10.7422,44.4336,31.9214
59.166,-1.45138,11.6111,0.0143716,7.75146,50.7202,27.5269
59.171,-1.40827,11.5919,0.0191589,4.82178,57.9224,23.1323
59.176,-1.39869,11.5536,0.0910074,2.07519,65.7349,19.043
59.18,-1.346,11.4721,0.143697,-0.244141,74.0356,15.0146
59.186,-1.37953,11.4099,0.17244,-2.07519,82.5195,11.2915
59.19,-1.48012,11.3284,0.239501,-3.479,90.8203,8.17871
59.196,-1.56156,11.2278,0.287404,-4.57764,98.2056,5.67627
59.2,-1.71004,11.1512,0.340093,-5.85938,105.041,3.11279
59.206,-1.71962,11.0219,0.34488,-7.32422,111.938,0.12207
59.211,-1.72441,10.8494,0.4311,-8.23975,119.263,-3.11279
59.215,-1.76753,10.7057,0.464631,-8.60596,126.709,-5.67627
59.221,-1.88728,10.5429,0.546064,-8.66699,133.85,-7.20215
59.225,-2.0645,10.3944,0.579594,-8.30078,140.32,-8.42285
59.231,-2.21779,10.2363,0.627497,-7.69043,145.935,-9.82666
59.235,-2.30401,10.1501,0.632284,-6.95801,150.94,-11.1694
59.241,-2.42376,9.99681,0.593966,-5.92041,155.334,-12.2681
59.245,-2.52435,9.87227,0.608338,-5.18799,159.302,-13.0615
59.25,-2.69679,9.74294,0.632284,-4.3335,162.598,-13.3057
59.256,-2.8884,9.59444,0.603541,-3.35693,164.917,-13.4888
59.26,-3.03688,9.43638,0.593966,-2.31934,166.077,-13.4277
59.266,-3.18538,9.30704,0.593966,-1.34277,166.382,-13.1226
59.27,-3.24285,9.15376,0.627497,-0.305176,165.527,-12.6343
59.276,-3.37219,9.03401,0.617912,0.976562,163.818,-11.7187
59.28,-3.45841,8.8951,0.694558,2.07519,161.011,-10.376
59.286,-3.57816,8.86157,0.747247,3.41797,157.227,-8.97217
59.291,-3.68833,8.81368,0.775991,4.63867,152.649,-7.32422
59.296,-3.77934,8.69871,0.924475,5.85938,146.851,-5.61523
59.301,-3.84162,8.7035,1.11129,6.95801,140.442,-3.90625
59.305,-3.86556,8.73224,1.18314,7.99561,133.606,-2.13623
59.31,-3.8464,8.76098,1.15919,8.66699,126.831,-0.183105
59.315,-3.84162,8.78015,1.13524,8.8501,120.056,1.40381
59.32,-3.78413,8.72745,1.05381,8.8501,113.708,2.62451
59.325,-3.73623,8.67955,1.06818,9.0332,107.483,3.96728
59.33,-3.63564,8.61728,1.09691,9.21631,101.624,5.31006
59.335,-3.559,8.58854,1.0586,9.27734,95.8252,6.5918
59.34,-3.49194,8.56938,1.04423,9.09424,90.332,7.99561
59.345,-3.45841,8.5598,1.03465,8.91113,85.3271,8.91113
59.349,-3.2716,8.57417,0.986749,8.54492,81.2378,9.70459
59.354,-3.11831,8.55022,1.00112,8.30078,78.125,10.376
59.359,-3.02731,8.48795,0.953218,7.99561,76.1719,11.0474
59.364,-3.03209,8.44963,0.938846,7.69043,74.7681,11.9019
59.369,-3.08478,8.34904,1.03465,7.8125,73.1812,12.8784
59.374,-3.18538,8.27719,1.11608,8.30078,71.5942,13.7329
59.379,-3.32429,8.21491,1.25978,8.78906,69.397,14.5874
59.384,-3.39613,8.22929,1.45138,9.52148,66.8945,15.4419
59.388,-3.43446,8.2245,1.59987,10.1318,64.209,15.7471
59.393,-3.4153,8.30113,1.68609,10.6201,61.6455,15.7471
59.398,-3.3674,8.35383,1.71484,10.8643,59.5703,15.3809
59.403,-3.29075,8.35383,1.69568,11.0474,58.0444,14.6484
59.408,-3.17579,8.36341,1.69568,11.7187,56.8848,13.7939
59.413,-3.07041,8.40173,1.71484,12.7563,56.0913,13.1836
59.418,-2.99378,8.53106,1.59029,13.6719,55.2368,12.7563
59.423,-2.91234,8.70829,1.42743,14.7095,54.5654,12.3291
59.427,-2.85965,8.88073,1.38912,15.5029,53.894,11.8408
59.432,-2.8405,9.01965,1.31726,15.9912,52.8564,11.2915
59.437,-2.85487,9.10107,1.32684,16.4185,51.4526,10.8643
59.442,-2.89797,9.17293,1.30768,16.7847,49.8047,10.8032
59.447,-2.96503,9.23999,1.31247,17.5781,47.6074,11.1084
59.452,-3.08478,9.41722,1.37474,18.7988,44.5557,11.9629
59.457,-3.171,9.68546,1.49928,20.3247,40.8325,13.1836
59.461,-3.26681,10.0256,1.67172,21.7285,36.2549,14.7095
59.466,-3.38177,10.3944,1.82022,22.9492,31.25,16.5405
59.471,-3.42488,10.7249,1.96871,23.8037,25.3906,18.0664
59.476,-3.50152,10.974,2.13635,24.292,19.165,19.7754
59.481,-3.58295,11.2039,2.27527,24.7192,12.4512,21.6064
59.486,-3.66438,11.453,2.42855,25.5737,5.37109,23.8647
59.491,-3.69791,11.7164,2.63452,26.9165,-1.89209,26.3061
59.496,-3.77455,12.0613,2.81654,28.5034,-9.21631,28.9917
59.5,-3.86556,12.3966,2.9315,29.8462,-16.7847,31.7993
59.506,-3.97573,12.7415,2.99856,30.5176,-24.353,34.3018
59.51,-3.9949,13.0337,3.08,30.4565,-32.1655,36.499
59.516,-4.02843,13.2397,3.06563,30.0903,-39.6118,38.269
59.52,-4.03321,13.4456,2.98419,29.3579,-46.2646,39.4897
59.526,-3.93262,13.5846,2.86923,28.3203,-51.9409,40.2222
59.53,-3.86556,13.6612,2.71116,26.9165,-56.6406,40.6494
59.536,-3.74102,13.6851,2.55309,25.3906,-60.0586,40.7104
59.541,-3.64043,13.7187,2.32796,23.7427,-62.3169,40.5273
59.546,-3.54463,13.7809,2.21779,21.9727,-63.5376,40.0391
59.551,-3.48715,13.7953,2.08366,19.9585,-63.8428,39.1846
59.555,-3.3626,13.7762,1.97828,17.395,-63.1714,37.6587
59.561,-3.21891,13.7378,1.82022,14.3433,-61.6455,35.4004
59.565,-3.08,13.642,1.70047,11.3525,-59.5703,33.02
59.571,-2.91234,13.5606,1.59987,8.91113,-57.1289,30.5176
59.575,-2.76865,13.4887,1.52803,6.34766,-54.3213,27.832
59.581,-2.66806,13.4696,1.50407,4.27246,-51.2085,25.1465
59.586,-2.57225,13.4792,1.45618,2.19727,-47.7295,22.3389
59.59,-2.5483,13.5271,1.4897,-0.183105,-43.9453,19.043
59.596,-2.4525,13.6133,1.43222,-3.05176,-40.2832,15.1367
59.6,-2.41418,13.5798,1.45618,-6.10351,-36.2549,10.6812
59.606,-2.38544,13.5319,1.47054,-9.33838,-32.1655,6.04248
59.61,-2.39981,13.3882,1.45618,-12.7563,-27.9541,0.793457
59.616,-2.43334,13.1487,1.48012,-16.2964,-23.6816,-4.82178
59.62,-2.45729,12.8708,1.47054,-19.8975,-19.2871,-10.5591
59.625,-2.4525,12.5355,1.40827,-23.3154,-14.5264,-16.4795
59.631,-2.4046,12.1859,1.35079,-26.6113,-9.70459,-22.3999
59.635,-2.39023,11.7548,1.21188,-29.4189,-5.12695,-28.1372
59.641,-2.44771,11.3332,1.18793,-31.6772,-0.915527,-33.6304
59.645,-2.56267,10.974,1.17356,-33.8135,2.86865,-38.269
59.651,-2.73032,10.586,1.03944,-35.9497,5.67627,-42.8467
59.655,-2.78781,10.2794,0.986749,-37.5366,7.87354,-47.7295
59.661,-2.76865,10.0303,1.00112,-38.4521,9.82666,-52.6123
59.666,-2.75906,9.82916,0.958005,-39.1846,11.6577,-56.8848
59.671,-2.74469,9.76689,0.919687,-39.6118,13.3667,-60.5469
59.676,-2.75428,9.73336,0.88137,-39.7949,14.4043,-63.8428
59.68,-2.78301,9.75731,0.871785,-40.1001,14.8926,-66.9556
59.686,-2.79259,9.82916,0.809521,-40.0391,14.7705,-69.6411
59.69,-2.76865,9.93934,0.82868,-39.917,13.4888,-71.8994
59.696,-2.78301,10.1357,0.814308,-39.917,11.2915,-73.7305
59.7,-2.80218,10.3752,0.814308,-40.0391,8.05664,-75.1343
59.705,-2.83091,10.6147,0.919687,-40.4053,4.15039,-76.4771
59.71,-2.85965,10.9021,0.953218,-40.9546,-0.244141,-77.3926
59.715,-2.89318,11.1895,1.03944,-41.5039,-5.18799,-78.186
59.72,-2.9315,11.4626,1.16398,-42.0532,-10.498,-78.6133
59.725,-2.95066,11.7021,1.15919,-42.7246,-16.1133,-78.7354
59.73,-2.90756,12.0374,1.12566,-43.5791,-21.5454,-78.4912
59.735,-2.92672,12.3487,1.11129,-44.7388,-26.9775,-78.064
59.739,-2.8884,12.6026,1.08734,-45.9595,-32.2266,-77.3315
59.744,-2.82134,12.8229,1.03465,-47.4853,-37.1094,-76.2329
59.749,-2.79259,13.0097,1.02985,-49.0112,-41.5649,-74.9512
59.754,-2.77822,13.187,1.03944,-50.4761,-45.7764,-73.4253
59.759,-2.7399,13.3019,0.996333,-52.1851,-49.5605,-71.7773
59.764,-2.67763,13.3355,0.996333,-53.9551,-52.4902,-70.2515
59.769,-2.60578,13.2972,0.981961,-55.7251,-54.6265,-68.9087
59.774,-2.48124,13.1966,0.929272,-57.5561,-55.603,-67.9932
59.779,-2.3567,13.005,0.886157,-59.1431,-55.0537,-67.1387
59.783,-2.17468,12.775,0.88137,-59.9976,-53.5278,-66.2842
59.788,-2.14594,12.5068,0.833467,-60.5469,-51.3916,-65.0635
59.793,-2.05493,12.2242,0.752035,-60.9131,-48.8892,-64.0259
59.798,-1.96391,11.8985,0.713717,-60.9131,-46.2646,-63.4155
59.803,-1.85853,11.6398,0.651443,-60.73,-43.457,-63.1103
59.808,-1.7819,11.4099,0.622709,-60.4858,-40.0391,-63.1714
59.813,-1.70047,11.1608,0.565223,-60.3027,-36.2549,-63.4155
59.818,-1.64298,10.9021,0.507746,-60.2417,-32.0435,-63.7207
59.822,-1.54718,10.6435,0.464631,-59.8755,-27.5879,-64.5142
59.827,-1.49928,10.3848,0.455056,-59.3872,-22.7661,-65.6738
59.832,-1.51844,10.1501,0.378411,-58.5937,-17.9443,-67.0166
59.837,-1.50407,9.92975,0.273032,-57.8003,-12.9395,-68.3594
59.842,-1.41306,9.70941,0.215555,-57.0679,-8.17871,-69.7632
59.847,-1.41306,9.5705,0.129335,-56.0913,-3.60107,-70.9839
59.852,-1.44659,9.41243,0.0191589,-55.0537,0.488281,-72.1436
59.856,-1.45138,9.32621,0.00958437,-54.1992,4.02832,-73.4253
59.861,-1.4897,9.23999,-0.100592,-53.7109,7.44629,-74.7681
59.866,-1.49449,9.10107,-0.17244,-53.1616,10.6201,-76.2329
59.871,-1.51844,8.93821,-0.220342,-52.5513,13.6719,-77.5146
59.876,-1.58071,8.80409,-0.234714,-51.6357,16.3574,-78.4912
59.881,-1.63819,8.68913,-0.234714,-50.7812,19.043,-79.4067
59.886,-1.71004,8.6077,-0.25866,-49.8657,21.4844,-80.0171
59.891,-1.76753,8.51669,-0.296978,-48.8281,23.3154,-80.3833
59.895,-1.79147,8.40652,-0.287404,-47.8516,24.7192,-80.5054
59.901,-1.88249,8.32509,-0.320934,-46.936,25.4517,-80.5664
59.905,-1.91122,8.19097,-0.335306,-46.0815,25.6958,-80.7495
59.911,-1.91602,8.09516,-0.349677,-45.0439,25.6348,-80.5054
59.916,-1.93038,7.99457,-0.34488,-43.8232,25.6348,-79.895
59.921,-1.96871,7.93231,-0.378411,-42.4805,25.1465,-78.9795
59.926,-1.98307,7.87962,-0.287404,-40.9546,24.4751,-77.8809
59.93,-2.09325,7.84129,-0.205971,-38.8184,23.1934,-76.4771
59.936,-2.21779,7.88919,-0.0526895,-36.6821,21.4844,-74.707
59.94,-2.28485,7.96584,0.114963,-34.6069,19.043,-72.7539
59.946,-2.31838,8.04247,0.277819,-32.6538,15.8691,-70.9229
59.95,-2.36628,8.13349,0.464631,-30.8228,12.2681,-69.2749
59.956,-2.32796,8.20534,0.632284,-29.0527,8.42285,-67.2607
59.961,-2.33275,8.2676,0.689771,-27.5269,4.82178,-65.0024
59.965,-2.3567,8.30113,0.799937,-26.1841,1.2207,-62.561
59.971,-2.28485,8.34425,0.804724,-24.9023,-1.89209,-60.0586
59.975,-2.19384,8.35383,0.752035,-23.5596,-4.21143,-57.6172
59.981,-2.11719,8.3203,0.718504,-22.4609,-5.98144,-55.1758
59.985,-2.00703,8.23887,0.632284,-21.4844,-6.5918,-52.6733
59.991,-1.89685,8.12391,0.517321,-20.1416,-6.46973,-50.1099
59.995,-1.78669,7.98978,0.421526,-18.8599,-5.7373,-47.4853
60,-1.70525,7.90835,0.330509,-17.395,-4.21143,-44.7998
60.006,-1.67172,7.84609,0.239501,-15.9912,-2.2583,-41.9922
60.01,-1.61425,7.77423,0.191599,-14.7095,-0.366211,-39.1235
60.016,-1.64778,7.69281,0.0958045,-13.4277,1.46484,-36.3159
60.02,-1.64298,7.62574,0.0526895,-12.146,3.23486,-33.3252
60.026,-1.60466,7.62095,0.0335306,-10.9253,4.76074,-30.5786
60.03,-1.55197,7.57784,0.0287433,-9.8877,6.40869,-27.832
60.036,-1.53281,7.57306,0.0670612,-8.72803,7.93457,-25.0244
60.041,-1.57113,7.60179,0.110166,-7.56836,9.27734,-22.1558
60.046,-1.56634,7.61616,0.17244,-6.40869,10.3149,-19.2871
60.051,-1.59987,7.67843,0.162866,-4.88281,10.9863,-16.2354
60.055,-1.57113,7.86046,0.244289,-3.41797,11.4746,-13.1836
60.061,-1.61903,7.98978,0.239501,-2.31934,11.4746,-10.0098
60.065,-1.62382,8.15265,0.249086,-1.09863,11.2915,-6.7749
60.071,-1.66215,8.3203,0.282616,0.061035,10.9863,-3.35693
60.075,-1.67172,8.44005,0.383208,1.15967,10.498,0.183105
60.081,-1.70525,8.61728,0.340093,2.50244,10.0098,4.15039
60.086,-1.70525,8.86637,0.239501,3.90625,9.33838,8.36182
60.09,-1.68131,9.12024,0.17244,5.24902,8.60596,12.6343
60.096,-1.64778,9.34537,0.100592,6.34766,8.17871,16.8457
60.1,-1.61425,9.52738,0.0431149,7.20215,7.56836,20.9351
60.106,-1.61425,9.67588,0.0239462,7.93457,7.44629,25.2686
60.11,-1.5855,9.82916,-0.00478728,8.91113,7.56836,29.7241
60.116,-1.59509,9.96807,-0.0814328,10.3149,7.62939,34.1187
60.12,-1.5855,10.1597,-0.0670612,11.9019,8.05664,38.5742
60.125,-1.6334,10.38,-0.0670612,13.4277,8.60596,43.2129
60.131,-1.65256,10.5477,-0.0670612,15.0146,9.09424,47.7905
60.135,-1.69568,10.7488,-0.0143716,16.7236,9.58252,52.3682
60.141,-1.74357,10.9548,-0.0143716,18.4326,9.82666,56.8237
60.145,-1.76753,11.1799,0,20.0195,10.1318,61.2183
60.151,-1.76274,11.3668,0.0335306,21.6064,10.3149,65.3687
60.155,-1.76274,11.5536,0.0574768,23.5596,10.498,69.6411
60.161,-1.80584,11.8027,0.0862201,25.6958,10.8032,73.9746
60.166,-1.80584,12.1236,0.167653,28.0151,11.2305,78.3081
60.171,-1.825,12.3966,0.143697,30.5176,11.4746,82.3364
60.176,-1.83459,12.7032,0.22513,32.4707,11.6577,85.8765
60.18,-1.91602,12.8756,0.220342,33.9966,11.7798,88.9892
60.186,-1.9735,12.9618,0.301775,34.729,11.5967,91.3696
60.19,-2.02619,12.9331,0.34488,35.6445,11.4136,93.3227
60.196,-2.0693,12.8421,0.378411,36.8042,11.4136,95.3979
60.2,-2.09325,12.7559,0.416729,38.269,11.8408,97.29
60.206,-2.09325,12.6649,0.445472,39.7949,12.4512,98.7549
60.211,-2.16031,12.5882,0.546064,41.5649,13.1226,99.9756
60.215,-2.22258,12.5259,0.713717,43.5181,13.6108,101.379
60.221,-2.33754,12.4589,0.871785,45.4712,13.7939,102.6
60.225,-2.41897,12.4397,0.981961,47.1191,13.6719,103.149
60.231,-2.48124,12.3439,1.09691,48.645,13.3057,103.455
60.235,-2.58184,12.1907,1.32205,49.8657,12.6343,103.21
60.241,-2.6441,11.9751,1.61425,51.2695,11.6577,102.356
60.245,-2.70159,11.7595,1.95434,53.1006,10.2539,101.746
60.25,-2.75428,11.6111,2.43813,55.603,8.54492,101.257
60.256,-2.80218,11.5392,2.78781,58.4106,6.34766,100.586
60.26,-2.78301,11.5632,2.98899,60.0586,4.45557,99.3652
60.266,-2.692,11.5488,2.98899,59.6924,3.2959,96.8628
60.27,-2.5004,11.3572,2.86923,58.0444,3.05176,92.9565
60.276,-2.213,11.041,2.6441,55.7861,4.88281,88.562
60.28,-1.97828,10.6962,2.38544,53.9551,8.78906,84.2895
60.286,-1.71962,10.3944,2.13635,52.6733,14.5874,80.3833
60.291,-1.5376,10.1213,1.82022,51.8188,21.7895,76.9653
60.296,-1.40827,9.94412,1.58071,51.0864,29.9683,73.7305
60.3,-1.33642,9.91059,1.33642,50.415,38.5742,70.6787
60.305,-1.29331,9.9058,1.1065,49.6826,47.2412,68.1152
60.31,-1.28373,10.0351,0.886157,48.8281,55.6641,65.8569
60.315,-1.25978,10.2794,0.699345,47.5464,63.8428,63.3545
60.32,-1.25978,10.5525,0.531692,45.7153,71.2891,60.9131
60.325,-1.3029,10.8447,0.34488,43.2739,78.064,58.4106
60.33,-1.37953,11.1273,0.263448,40.2832,84.1064,55.6641
60.335,-1.45618,11.3811,0.186812,36.8652,89.1724,52.7954
60.339,-1.58071,11.6829,0.148494,33.0811,93.2617,49.9878
60.344,-1.77231,11.9416,0.158069,29.3579,96.1914,47.1191
60.349,-1.93518,12.1332,0.158069,24.8413,97.8393,44.0063
60.354,-2.10762,12.2625,0.143697,20.0195,98.938,40.1611
60.359,-2.14115,12.411,0.234714,15.1978,99.8535,35.5835
60.364,-2.15552,12.4685,0.22513,10.3149,101.074,31.25
60.369,-2.22737,12.3966,0.244289,5.67627,102.661,27.4658
60.374,-2.2609,12.3296,0.210758,1.89209,104.187,24.1699
60.378,-2.4046,12.229,0.244289,-1.64795,105.591,20.9961
60.383,-2.50519,12.1427,0.268245,-4.5166,106.873,17.8223
60.388,-2.56746,12.0038,0.249086,-6.95801,107.788,15.0146
60.393,-2.62015,11.8506,0.268245,-8.97217,108.337,12.5122
60.398,-2.69679,11.7308,0.287404,-10.5591,108.704,10.2539
60.403,-2.67763,11.5679,0.340093,-11.9019,108.948,7.99561
60.408,-2.76385,11.3716,0.392783,-12.8784,109.131,5.98144
60.412,-2.85965,11.1273,0.502959,-13.6108,109.253,4.02832
60.417,-2.9794,10.9117,0.57001,-13.9771,109.192,2.19727
60.422,-3.11831,10.7153,0.651443,-13.7329,108.887,0.549316
60.427,-3.21891,10.471,0.680186,-13.0615,108.154,-0.915527
60.432,-3.26681,10.2363,0.775991,-12.0239,107.178,-2.07519
60.437,-3.34344,10.0447,0.866998,-10.6201,105.896,-3.17383
60.442,-3.42009,9.89143,0.938846,-9.09424,104.187,-4.02832
60.447,-3.52068,9.69025,0.991536,-7.50732,101.868,-4.88281
60.451,-3.57337,9.53697,1.00591,-6.10351,99.1211,-5.79834
60.456,-3.56858,9.331,0.991536,-4.63867,95.9473,-6.83594
60.461,-3.55421,9.07234,1.02985,-3.17383,92.5903,-7.69043
60.466,-3.559,8.80888,1.0586,-1.52588,89.1724,-8.23975
60.471,-3.56858,8.59333,1.06338,0.671387,85.5102,-8.48389
60.476,-3.6069,8.44005,1.04902,2.99072,81.7261,-8.54492
60.481,-3.61648,8.32988,1.06818,5.31006,77.4536,-8.42285
60.486,-3.56858,8.25324,1.05381,7.75146,72.876,-8.11768
60.491,-3.53984,8.2245,1.02028,9.94873,67.8711,-7.87354
60.495,-3.56858,8.21971,0.962802,11.7187,62.6831,-7.44629
60.5,-3.53026,8.17181,0.953218,13.1226,57.5561,-7.01904
60.506,-3.45362,8.12391,0.833467,14.3433,52.124,-6.53076
60.51,-3.38656,8.09516,0.82868,15.5029,46.814,-5.85938
60.516,-3.33387,8.09038,0.766406,16.3574,41.3818,-5.12695
60.52,-3.32429,8.09516,0.737663,16.9678,36.2549,-3.96728
60.526,-3.27638,8.14307,0.718504,17.7002,31.1279,-2.80762
60.53,-3.20932,8.23887,0.694558,18.1885,26.1841,-1.52588
60.536,-3.171,8.33946,0.689771,18.7378,21.4233,0.061035
60.541,-3.1231,8.47358,0.728088,19.165,16.9067,1.70898
60.546,-3.11353,8.60291,0.799937,19.2871,12.5732,3.35693
60.551,-3.11353,8.71309,0.809521,19.165,8.66699,5.00488
60.555,-3.09437,8.83762,0.88137,18.7378,5.18799,6.34766
60.561,-2.98419,8.87594,0.948431,17.8833,2.38037,7.50732
60.565,-2.95066,8.90468,0.972377,17.395,0.671387,8.42285
60.571,-2.87403,8.91906,0.943634,17.0898,-0.244141,9.58252
60.575,-2.83091,8.93821,0.991536,17.334,-0.793457,10.8643
60.581,-2.87403,9.02443,1.1544,17.9443,-1.34277,12.0239
60.586,-2.8405,9.17293,1.31726,18.7378,-2.01416,13.3057
60.59,-2.85487,9.39327,1.36037,19.2261,-2.80762,14.5874
60.596,-2.77343,9.60403,1.35079,18.9209,-3.72314,15.4419
60.6,-2.62015,9.75252,1.38912,18.0054,-4.15039,15.1978
60.606,-2.52915,9.79563,1.40827,16.9067,-3.54004,14.6484
60.61,-2.42376,9.77647,1.36037,16.1743,-2.01416,14.2822
60.616,-2.32316,9.72857,1.35079,15.564,0.610352,13.4888
60.62,-2.26569,9.72857,1.33642,15.1978,4.15039,12.6953
60.625,-2.21779,9.74294,1.26936,14.8926,8.54492,11.5967
60.631,-2.13157,9.7142,1.18793,14.5264,13.4888,10.6201
60.635,-2.08846,9.67588,1.12566,14.4653,18.8599,9.39941
60.641,-2.08366,9.6136,1.09691,14.6484,24.5972,8.30078
60.645,-2.07888,9.57529,1.06818,15.1367,30.4565,7.38525
60.651,-2.13635,9.6136,1.06818,16.1133,36.0107,6.71387
60.655,-2.20341,9.74294,1.14961,17.2729,41.0156,6.04248
60.661,-2.37586,9.89143,1.2502,18.2495,44.9829,5.43213
60.666,-2.58184,9.94412,1.3029,18.9819,48.3398,4.27246
60.671,-2.78301,9.98244,1.4897,19.5312,51.0864,2.50244
60.676,-2.85965,10.1022,1.64778,20.2637,53.9551,0.610352
60.68,-2.86923,10.1549,1.78669,21.4233,57.4951,-1.40381
60.686,-2.85965,10.3513,1.80106,23.0713,62.3169,-3.17383
60.69,-2.87881,10.5716,1.81543,24.7803,67.688,-4.76074
60.695,-2.99378,10.7488,1.79147,26.4282,73.0591,-6.22558
60.7,-3.03688,10.9404,1.80106,28.0151,78.186,-7.93457
60.705,-3.15185,11.1512,1.75315,29.48,82.3975,-9.15527
60.71,-3.28597,11.3476,1.67651,31.25,84.8999,-9.70459
60.715,-3.45362,11.5584,1.71004,32.8369,85.8154,-10.0708
60.72,-3.63085,11.817,1.69568,34.0576,85.3882,-10.3149
60.725,-3.77934,12.0709,1.69568,34.668,83.8623,-10.8032
60.729,-3.94699,12.3248,1.67172,34.668,81.4819,-11.2915
60.734,-4.02843,12.5164,1.55676,34.0576,78.3691,-11.7187
60.739,-4.14818,12.7271,1.36995,33.02,74.4019,-11.7798
60.744,-4.32062,13.0145,1.25499,32.2266,69.7021,-11.5967
60.749,-4.55532,13.2684,1.22625,31.0669,63.9648,-10.9863
60.754,-4.84752,13.5462,1.21667,29.4189,56.8848,-10.1318
60.759,-5.12056,13.8432,1.24062,26.8555,48.2788,-9.58252
60.764,-5.36963,14.1354,1.19751,23.3765,38.9404,-9.58252
60.769,-5.51813,14.2073,1.10171,18.8599,29.48,-10.498
60.773,-5.56603,14.212,1.11129,13.7329,20.813,-12.0239
60.778,-5.59956,14.1402,1.09213,8.78906,12.9395,-13.3057
60.783,-5.67619,13.9534,1.07776,3.72314,5.7373,-14.4653
60.788,-5.67141,13.6947,1.14003,-1.09863,-0.427246,-16.2964
60.793,-5.53728,13.4217,1.23104,-5.24902,-4.76074,-18.7378
60.798,-5.41753,13.1247,1.36037,-8.42285,-7.56836,-21.6675
60.803,-5.37922,12.8756,1.68131,-10.5591,-9.33838,-24.353
60.808,-5.4319,12.6984,2.03097,-12.3291,-10.0708,-27.4048
60.812,-5.39837,12.4876,2.43813,-14.3433,-9.46045,-31.7993
60.817,-5.28341,12.2529,2.57225,-16.6016,-7.87354,-37.2925
60.822,-5.08223,11.9416,2.56267,-19.104,-4.5166,-43.335
60.827,-4.92416,11.5871,2.41418,-20.9961,0.549316,-49.7436
60.832,-4.72298,11.1752,2.17468,-22.3999,7.20215,-56.5796
60.837,-4.62718,10.792,1.9735,-23.0713,14.5264,-63.4155
60.842,-4.64155,10.5285,2.01182,-23.4985,22.3999,-69.519
60.846,-4.67987,10.3369,1.72441,-23.6816,29.48,-74.646
60.851,-4.94811,10.2698,1.26936,-23.0103,33.3862,-78.8574
60.856,-5.13493,10.3417,1.04423,-23.1934,33.3862,-83.313
60.861,-5.1924,10.4231,0.857414,-24.9634,29.7852,-87.4023
60.866,-5.30737,10.5716,0.732876,-27.9541,21.9727,-89.3555
60.871,-5.47981,10.6243,0.74246,-32.6538,9.76562,-89.0503
60.876,-5.48459,10.5668,0.474215,-37.7197,-5.5542,-87.8296
60.881,-5.5804,10.8255,0.546064,-41.3208,-22.4609,-86.1206
60.885,-4.81399,11.5105,1.2023,-44.3726,-36.6211,-87.8906
60.891,-3.88951,11.3955,0.253873,-50.4761,-46.3257,-87.0972
60.895,-5.22593,11.5392,0.148494,-51.1475,-58.8989,-82.2754
60.901,-4.82836,12.89,1.13045,-48.8892,-67.3218,-87.4634
60.905,-3.63564,13.0433,0.684973,-54.3213,-70.6787,-91.2476
60.911,-3.7554,12.7702,0.704132,-58.5937,-72.7539,-88.562
60.916,-4.22003,12.8613,0.852626,-59.8144,-73.7915,-85.5102
60.921,-4.39247,13.1487,0.732876,-60.5469,-76.9653,-83.9233
60.926,-4.14818,13.5127,0.785565,-62.6221,-81.9092,-82.8247
60.93,-3.171,13.6756,1.22625,-65.1855,-83.8623,-83.1909
60.936,-1.90165,13.1774,1.36037,-67.5049,-79.2236,-84.2895
60.94,-2.20821,12.4158,1.12566,-66.3452,-69.8853,-82.5806
60.946,-3.46799,12.4206,1.16398,-60.2417,-55.8472,-82.2143
60.95,-4.14338,13.0624,1.33642,-56.3354,-41.4429,-84.5947
60.956,-4.10506,13.6181,1.54718,-58.4106,-31.6162,-86.9141
60.961,-3.61169,13.7283,1.62862,-62.6221,-23.8037,-89.8437
60.965,-3.03209,13.4552,1.53281,-64.6973,-13.5498,-94.6045
60.971,-2.82612,12.9235,1.36037,-63.4155,0.671387,-100.891
60.975,-3.00335,12.5116,1.00591,-58.4106,18.7988,-106.506
60.981,-3.23328,12.4781,0.670602,-49.6216,38.5132,-110.046
60.985,-3.70749,12.8086,0.799937,-40.0391,56.0303,-110.168
60.991,-4.1865,13.2157,0.74246,-35.7666,68.1152,-112.183
60.995,-4.59844,13.187,0.435898,-39.2456,73.7915,-117.432
61,-4.95769,12.7607,-0.177227,-45.227,70.0684,-119.385
61.006,-5.15409,12.4206,-0.876573,-49.0723,57.373,-119.568
61.01,-5.24988,12.411,-1.33642,-51.2695,38.8184,-120.239
61.016,-5.08702,12.5595,-1.70525,-53.2227,17.8223,-120.972
61.02,-4.36372,12.708,-1.95434,-55.2978,-1.09863,-122.681
61.026,-3.01294,12.775,-2.10762,-56.8237,-15.3809,-126.221
61.03,-1.60946,12.7702,-2.39502,-57.8613,-24.353,-128.967
61.036,-0.0287433,12.4685,-2.692,-58.6548,-28.2593,-130.981
61.041,1.71484,11.8362,-2.8405,-59.7534,-30.7617,-133.362
61.046,3.34344,11.041,-2.99378,-61.4014,-32.7759,-135.254
61.051,5.01996,10.0926,-3.45362,-62.8052,-31.4941,-136.169
61.055,6.72043,9.08671,-3.60211,-62.3169,-26.3061,-135.498
61.061,7.7934,8.34904,-3.60211,-58.96,-16.9678,-131.042
61.065,8.30593,7.80776,-3.54463,-53.5889,-3.96728,-123.657
61.071,8.50711,7.5012,-3.45841,-46.6919,11.1084,-115.112
61.075,8.25324,7.43415,-3.44404,-38.0249,26.4282,-104.248
61.081,7.81256,7.67365,-3.52068,-28.5645,39.3677,-91.5527
61.086,7.05094,8.18618,-3.6548,-18.2495,48.4009,-76.1108
61.09,6.22226,8.87594,-3.85598,-7.50732,52.6123,-58.6548
61.095,5.83906,9.7142,-4.02843,1.52588,52.4902,-41.9922
61.1,5.98755,10.5525,-4.29188,6.89697,49.8657,-26.9775
61.105,6.54798,11.0219,-4.67029,8.54492,46.7529,-13.855
61.11,7.22338,11.0889,-5.07265,7.38525,44.5557,-2.01416
61.115,7.73591,10.8542,-5.50854,5.06592,44.0674,9.21631
61.12,8.09038,10.4662,-5.82947,2.31934,44.4336,20.0806
61.124,8.30113,10.1549,-6.06419,-0.549316,44.7998,29.8462
61.129,8.25324,9.89143,-6.27974,-2.92969,44.3115,38.8794
61.134,8.10953,9.74773,-6.41387,-5.24902,42.6025,47.1191
61.139,7.96584,9.68066,-6.46176,-6.89697,40.7715,53.7109
61.144,7.79818,9.66151,-6.42823,-7.20215,39.2456,58.1665
61.149,7.46767,9.63277,-6.26537,-6.95801,38.8184,61.7676
61.154,6.89766,9.49385,-6.04982,-6.71387,39.1846,65.7959
61.159,6.27974,9.30704,-5.81032,-5.61523,39.7949,70.1904
61.164,5.77679,9.22562,-5.5756,-3.17383,40.6494,74.7681
61.168,5.27384,9.26872,-5.36006,0.427246,42.1143,79.2847
61.173,4.72777,9.33578,-4.98643,4.63867,44.2505,83.9233
61.178,4.17212,9.46991,-4.67029,9.15527,46.814,88.3179
61.183,3.67396,9.58966,-4.32062,13.5498,49.6826,92.2241
61.188,3.26202,9.67109,-4.01406,17.8833,52.5513,95.459
61.193,2.84528,9.76689,-3.76018,22.0337,55.4199,98.4497
61.198,2.49082,9.90101,-3.62127,26.2451,58.5327,101.501
61.203,2.10762,10.0974,-3.49673,30.8228,62.5,104.797
61.207,1.66693,10.5093,-3.41051,35.2783,66.7114,107.727
61.212,1.24541,10.9692,-3.30513,39.1846,70.9229,109.802
61.217,0.819096,11.3716,-3.16622,41.687,75.1953,110.413
61.222,0.411942,11.6733,-3.20932,42.6025,79.7119,110.413
61.227,-0.0526895,11.8506,-3.28118,43.0298,84.2895,109.924
61.232,-0.522118,11.9943,-3.37697,43.335,89.1113,109.131
61.237,-1.14482,12.2338,-3.42488,44.0063,93.3227,108.52
61.242,-1.89685,12.4781,-3.41051,44.1284,96.5576,108.154
61.246,-2.71595,12.6792,-3.27638,44.2505,97.8393,107.971
61.251,-3.7027,12.9618,-3.11353,43.7622,96.3135,107.666
61.256,-4.65113,13.2109,-2.85965,41.8091,92.2241,107.056
61.261,-5.41753,13.4025,-2.59141,39.4287,87.0972,105.896
61.266,-6.11688,13.5846,-2.31359,37.1094,81.9702,105.103
61.271,-6.83538,13.6803,-1.95913,35.0342,77.7588,104.431
61.276,-7.62095,13.7283,-1.65256,33.4473,73.9136,103.943
61.28,-8.47358,13.8097,-1.21188,32.5928,69.7021,103.577
61.286,-9.09628,13.8288,-0.823883,31.9214,65.4297,102.112
61.291,-9.56091,13.7283,-0.593966,31.4331,61.4624,99.6704
61.296,-9.97287,13.484,-0.354465,30.8838,58.5937,96.5576
61.301,-10.2507,13.1726,-0.13891,30.2124,57.8613,92.5293
61.305,-10.4519,12.775,-0.0910074,29.3579,59.4482,87.8906
61.311,-10.5525,12.4158,-0.0622739,28.3813,62.7441,82.2143
61.315,-10.7728,11.8697,-0.0622739,27.5269,67.4438,76.5991
61.321,-11.1943,11.3668,0.00958437,27.1606,72.4487,70.9839
61.325,-11.6781,11.041,0.268245,27.4048,77.2705,65.2466
61.331,-12.205,10.7441,0.752035,27.832,80.9326,59.1431
61.336,-12.799,10.5764,1.36516,27.71,83.1909,52.1851
61.34,-13.3977,10.4471,1.82022,26.7334,84.5947,44.9829
61.346,-13.872,10.3082,2.08366,25.0854,85.3271,37.9639
61.35,-14.3557,10.0303,2.41418,23.4985,84.6558,31.1279
61.356,-14.9306,9.76689,2.74948,21.7285,82.0923,24.292
61.36,-15.4239,9.35974,3.03688,18.9819,77.5757,17.0898
61.366,-15.7544,8.91426,3.27638,15.686,70.9839,10.2539
61.37,-15.8981,8.54543,3.30991,12.6343,63.4766,4.39453
61.375,-15.8359,8.25803,3.25244,10.1318,56.5796,-0.793457
61.381,-15.7305,8.08079,3.33866,8.30078,51.2695,-5.92041
61.385,-15.6012,7.95147,3.34824,6.5918,47.6074,-11.1084
61.391,-15.6538,7.7886,3.35782,4.45557,44.2505,-16.1743
61.395,-15.8454,7.67843,3.35303,1.89209,40.1611,-20.752
61.401,-15.9365,7.64012,3.3674,-0.305176,35.0952,-25.2075
61.405,-15.9269,7.67365,3.44404,-2.44141,29.4189,-29.4189
61.411,-15.8598,7.82693,3.50152,-4.88281,23.4985,-33.0811
61.416,-15.7401,8.0281,3.559,-7.32422,17.7002,-36.499
61.421,-15.5341,8.2676,3.59732,-9.76562,12.5122,-40.2222
61.426,-15.2611,8.49753,3.57816,-12.085,7.56836,-44.0063
61.43,-14.9545,8.72745,3.42488,-14.5874,2.86865,-47.6685
61.436,-14.6384,8.92863,3.19016,-17.1509,-1.2207,-51.3916
61.44,-14.2791,9.14419,3.03688,-19.165,-5.00488,-55.1758
61.446,-13.8815,9.41722,2.85007,-20.813,-8.54492,-59.021
61.45,-13.5127,9.65672,2.62494,-22.7051,-11.4746,-62.8662
61.456,-13.1247,9.91538,2.40939,-24.9023,-13.855,-66.8335
61.461,-12.8613,10.1405,2.21779,-27.2827,-15.686,-71.0449
61.465,-12.4062,10.4279,1.98307,-29.1748,-16.8457,-75.3784
61.471,-11.8314,10.5908,1.79626,-31.1279,-17.0898,-80.0781
61.475,-11.3668,10.8063,1.68131,-32.7148,-15.9302,-84.7778
61.481,-11.0027,11.0027,1.56156,-33.8745,-13.5498,-89.1113
61.485,-10.7249,11.1225,1.44659,-34.79,-11.1084,-93.0786
61.49,-10.5477,11.2614,1.346,-35.4004,-8.8501,-96.6797
61.495,-10.3225,11.3955,1.32205,-35.5835,-7.56836,-100.22
61.5,-9.89622,11.52,1.21188,-36.0107,-6.65283,-103.516
61.505,-9.422,11.5632,1.12566,-36.499,-5.5542,-106.689
61.51,-8.8472,11.5775,1.05381,-36.8652,-2.99072,-109.802
61.515,-8.35383,11.6015,0.88137,-36.6821,0.854492,-112.488
61.52,-8.01853,11.5296,0.661027,-36.0718,5.00488,-114.563
61.524,-7.84129,11.4482,0.517321,-35.1562,8.30078,-116.211
61.529,-7.64012,11.4003,0.4311,-34.1187,10.376,-117.615
61.534,-7.33834,11.429,0.277819,-33.4473,11.7187,-118.896
61.539,-6.9695,11.4961,0.0239462,-33.0811,12.3901,-119.812
61.544,-6.55756,11.4578,-0.13891,-32.7759,13.1226,-120.605
61.549,-6.21268,11.4099,-0.320934,-32.3486,13.7329,-121.399
61.554,-5.95881,11.3955,-0.546064,-32.1045,13.916,-121.643
61.558,-5.56603,11.362,-0.65624,-32.1045,13.7939,-121.521
61.563,-5.16366,11.3141,-0.752035,-31.9824,13.916,-121.277
61.568,-4.81399,11.3093,-0.809521,-31.7993,14.4043,-120.544
61.573,-4.55054,11.2566,-0.819096,-31.5552,14.8315,-119.568
61.578,-4.37331,11.1943,-0.876573,-31.4941,15.0757,-118.53
61.583,-4.19128,11.0842,-0.9149,-31.4331,14.8315,-117.31
61.588,-3.99968,11.0075,-0.9149,-31.0669,13.7329,-115.723
61.593,-3.64522,10.9644,-0.958005,-30.2734,12.3291,-114.136
61.597,-3.24285,10.8734,-0.981961,-29.8462,11.1694,-112.793
61.602,-2.91234,10.7297,-0.977164,-29.7241,10.2539,-111.328
61.607,-2.53393,10.5381,-0.986749,-29.1748,9.52148,-109.619
61.612,-2.22258,10.2651,-0.958005,-28.1982,9.0332,-107.727
61.617,-1.91122,10.0351,-0.958005,-26.8555,8.48389,-105.774
61.622,-1.67651,9.83395,-0.934059,-25.3906,8.11768,-103.699
61.627,-1.44659,9.64713,-0.924475,-23.8647,7.75146,-101.013
61.632,-1.21188,9.48428,-0.943634,-22.1558,7.26318,-98.0225
61.637,-1.07297,9.331,-0.958005,-20.5078,6.40869,-94.9707
61.641,-0.876573,9.17293,-0.953218,-18.7378,5.7373,-91.7358
61.646,-0.780778,9.11065,-0.962802,-16.9678,4.63867,-88.1958
61.651,-0.790352,9.07712,-0.986749,-15.1367,2.86865,-84.2285
61.656,-0.704132,9.1346,-1.01069,-13.4888,0.427246,-80.0171
61.661,-0.565223,9.29268,-1.02507,-11.9629,-2.19727,-75.6226
61.666,-0.512533,9.45554,-1.11129,-10.9253,-5.12695,-71.0449
61.671,-0.373624,9.47949,-1.1544,-10.3149,-8.42285,-67.3218
61.675,-0.296978,9.43159,-1.2023,-9.94873,-11.7798,-63.9038
61.68,-0.215555,9.31663,-1.24541,-9.52148,-15.0146,-60.5469
61.686,-0.105379,9.21603,-1.26936,-8.97217,-17.7612,-57.0679
61.691,-0.0431149,9.17772,-1.33642,-8.54492,-20.1416,-53.3447
61.695,0.0239462,9.10587,-1.38912,-8.11768,-22.3999,-49.8047
61.7,-0.00478728,9.02443,-1.43222,-7.93457,-24.353,-46.1426
61.706,0.0766455,8.97653,-1.4897,-7.99561,-26.001,-42.6636
61.71,0.22513,8.8951,-1.50407,-7.75146,-27.2827,-39.4287
61.715,0.325721,8.82325,-1.49449,-7.50732,-28.0762,-36.0718
61.721,0.435898,8.68434,-1.4897,-7.01904,-28.2593,-32.6538
61.726,0.512533,8.61728,-1.51844,-6.22558,-28.0762,-29.1138
61.73,0.589179,8.6604,-1.48491,-5.49316,-27.5879,-25.2075
61.735,0.598753,8.72745,-1.5424,-4.63867,-26.5503,-21.4844
61.741,0.627497,8.75619,-1.51365,-3.66211,-24.7803,-18.0054
61.746,0.680186,8.77535,-1.43222,-2.38037,-21.8506,-14.6484
61.75,0.790352,8.79931,-1.46096,-1.15967,-17.395,-11.3525
61.756,0.780778,8.86157,-1.4897,0.244141,-12.2681,-7.87354
61.761,0.65624,8.92384,-1.52803,1.52588,-7.01904,-3.78418
61.765,0.502959,9.02443,-1.5376,2.80762,-2.07519,0.427246
61.77,0.373624,9.18729,-1.55197,3.78418,1.95312,4.57764
61.776,0.249086,9.35494,-1.60946,4.27246,5.37109,9.0332
61.781,0.13891,9.46991,-1.63819,4.3335,8.23975,13.6108
61.785,0.0239462,9.56091,-1.6334,4.3335,10.8032,17.8833
61.791,-0.143697,9.58966,-1.64298,4.08936,13.2446,22.4609
61.796,-0.244289,9.58487,-1.64298,3.66211,15.564,26.9775
61.8,-0.392783,9.6184,-1.61425,3.66211,17.7002,31.4941
61.805,-0.526905,9.72378,-1.53281,3.78418,19.8364,36.3159
61.811,-0.593966,9.9058,-1.56156,3.54004,21.9116,41.8091
61.816,-0.684973,10.1932,-1.60466,3.41797,24.231,47.6685
61.82,-0.689771,10.495,-1.64778,3.54004,26.6724,53.3447
61.825,-0.718504,10.7584,-1.76753,3.479,29.2969,58.6548
61.831,-0.79515,11.0171,-1.825,2.92969,32.2876,63.6597
61.835,-0.9149,11.1464,-1.88728,1.52588,35.0342,68.4204
61.84,-1.13524,11.156,-2.00703,-0.976562,37.5977,72.6318
61.846,-1.32205,11.0746,-2.03097,-4.02832,39.7949,76.6602
61.851,-1.53281,10.8782,-2.05013,-7.08008,41.5039,80.6274
61.855,-1.72921,10.6626,-2.0645,-9.52148,43.0298,84.7778
61.86,-1.88728,10.5477,-2.04056,-11.2915,44.3726,89.0503
61.866,-2.04056,10.5572,-2.0166,-12.6953,45.7764,93.5669
61.871,-2.10762,10.6195,-1.96391,-14.0991,47.6074,97.7173
61.875,-2.15072,10.6578,-1.9256,-15.625,50.1099,101.257
61.88,-2.25132,10.6818,-1.85853,-16.9067,52.8564,104.492
61.885,-2.49082,10.7105,-1.74357,-18.0054,55.7251,107.788
61.89,-2.75906,10.6866,-1.65735,-19.3481,58.0444,110.962
61.895,-3.02251,10.6339,-1.5424,-20.6299,59.3872,113.953
61.9,-3.27638,10.5812,-1.44181,-21.5454,59.9365,116.333
61.905,-3.45362,10.5908,-1.32205,-22.1558,59.7534,118.225
61.91,-3.52547,10.586,-1.20709,-22.8271,59.1431,119.69
61.915,-3.67875,10.5956,-1.1544,-23.6206,57.9224,120.605
61.919,-3.76018,10.6051,-1.12566,-24.1699,56.6406,121.338
61.924,-3.74102,10.6243,-1.13524,-24.5361,55.1758,121.46
61.929,-3.68833,10.6531,-1.1065,-24.8413,53.9551,120.544
61.934,-3.61648,10.6914,-1.12087,-25.0854,53.1616,119.141
61.939,-3.45841,10.6531,-1.14961,-25.4517,52.7954,117.249
61.944,-3.29555,10.5812,-1.2981,-26.062,53.3447,114.929
61.949,-3.08957,10.5237,-1.45618,-26.2451,54.6875,112.366
61.954,-2.87403,10.4662,-1.58071,-26.1841,57.0068,109.436
61.958,-2.62973,10.4327,-1.71962,-25.8179,60.3027,106.689
61.963,-2.41418,10.4567,-1.78669,-25.3296,64.3921,104.065
61.968,-2.27048,10.5285,-1.93038,-24.8413,69.2749,101.501
61.973,-2.11719,10.5956,-2.05013,-24.1699,75.0732,98.8159
61.978,-2.00703,10.677,-2.16031,-23.3765,81.543,96.1304
61.983,-1.92081,10.7728,-2.28485,-22.3999,88.7451,93.811
61.988,-1.91122,10.8973,-2.31359,-21.6064,96.3135,91.8579
61.992,-1.96871,11.0315,-2.35191,-21.2402,104.065,90.1489
61.997,-2.08366,11.1321,-2.41418,-20.5078,111.633,88.501
62.002,-2.1651,11.2039,-2.38544,-19.6533,119.019,87.0361
62.007,-2.30401,11.3476,-2.30401,-18.7378,125.488,86.2427
62.012,-2.51477,11.4434,-2.213,-17.8223,130.92,85.9985
62.017,-2.74948,11.5009,-2.09804,-16.9067,135.315,86.1816
62.022,-3.07041,11.6111,-1.93038,-15.8081,138.55,86.9141
62.027,-3.37697,11.726,-1.83459,-14.8315,140.503,87.8906
62.032,-3.61648,11.8074,-1.71484,-13.855,141.541,88.9892
62.036,-3.85119,11.8937,-1.56634,-12.9395,141.907,90.5151
62.041,-4.08112,11.9416,-1.38432,-12.085,141.602,92.2851
62.046,-4.33499,11.9799,-1.27415,-11.0474,140.869,94.1772
62.051,-4.65591,11.9703,-1.19272,-10.0098,139.404,96.3745
62.056,-4.89063,11.9176,-1.12566,-9.21631,137.268,98.2056
62.061,-5.01996,11.7979,-1.00591,-8.42285,134.338,99.6704
62.066,-5.12056,11.6733,-1.00112,-7.8125,131.042,101.074
62.07,-5.18762,11.4913,-1.02985,-7.26318,127.441,102.539
62.075,-5.22115,11.2805,-1.02985,-7.14111,123.291,103.76
62.081,-5.22593,11.1225,-1.14482,-6.95801,118.835,104.37
62.085,-5.15409,10.883,-1.18793,-7.08008,114.197,104.492
62.09,-5.02954,10.7105,-1.28852,-7.38525,110.107,104.309
62.096,-4.87147,10.5237,-1.33163,-7.56836,106.506,103.882
62.101,-4.68466,10.3273,-1.40348,-7.38525,103.882,102.966
62.105,-4.55532,10.2076,-1.49449,-7.01904,101.807,101.807
62.11,-4.39247,10.1166,-1.55197,-6.53076,100.83,100.281
62.116,-4.24397,10.0543,-1.60466,-5.67627,100.586,98.5107
62.121,-4.15775,10.0208,-1.62862,-5.00488,100.891,96.4355
62.125,-4.06196,9.99681,-1.66215,-4.27246,101.44,94.2383
62.131,-4.02843,9.97765,-1.67172,-3.54004,101.868,91.9189
62.136,-4.01406,9.97287,-1.66215,-2.92969,102.173,89.4165
62.14,-4.04759,10.016,-1.57593,-2.2583,102.295,86.9141
62.145,-4.09069,10.0639,-1.50407,-1.52588,102.295,84.2285
62.151,-4.12422,10.1597,-1.40348,-0.427246,102.417,81.665
62.156,-4.17212,10.3177,-1.28373,0.854492,102.844,79.1016
62.16,-4.21044,10.4423,-1.18314,2.01416,103.455,76.7822
62.166,-4.30146,10.5668,-1.10171,3.05176,103.821,74.3408
62.171,-4.43557,10.6483,-1.02985,3.66211,104.187,71.9604
62.175,-4.55054,10.7105,-0.981961,4.27246,104.187,69.7021
62.18,-4.67987,10.7057,-0.991536,4.88281,103.76,67.749
62.186,-4.75651,10.7824,-1.00112,5.37109,102.844,65.979
62.191,-4.87626,10.8686,-1.01549,6.10351,101.44,64.5752
62.195,-4.95769,10.9788,-0.991536,6.89697,99.7925,63.1103
62.2,-5.03434,11.0363,-1.01549,7.38525,97.5952,61.8286
62.206,-5.08702,11.1033,-0.972377,7.69043,95.1538,60.3027
62.21,-5.13013,11.1752,-0.953218,8.05664,92.8955,58.7769
62.215,-5.14929,11.1799,-0.895741,8.60596,90.8813,57.4341
62.221,-5.25468,11.2518,-0.704132,9.27734,88.6841,56.1523
62.226,-5.37922,11.3332,-0.546064,10.0708,86.4258,54.9316
62.23,-5.40796,11.4195,-0.407154,10.6812,84.1675,53.4058
62.235,-5.384,11.4626,-0.287404,11.2305,81.665,51.5137
62.241,-5.38879,11.5296,-0.229927,11.6577,79.4678,49.6216
62.246,-5.27384,11.5536,-0.182025,11.9019,77.8198,47.5464
62.25,-5.22593,11.5584,-0.158069,11.9019,76.7822,45.105
62.256,-5.11576,11.5919,-0.143697,12.207,76.8433,42.6636
62.261,-4.94811,11.6542,-0.234714,12.6343,78.2471,40.0391
62.265,-4.71819,11.75,-0.378411,12.8784,80.8716,37.1094
62.27,-4.426,11.7787,-0.651443,13.0005,84.9609,34.3018
62.275,-4.19128,11.8314,-0.895741,13.3667,90.271,31.1279
62.28,-3.96137,11.9559,-1.01549,13.7939,96.3135,28.1372
62.285,-3.82724,12.0086,-1.16398,14.0381,102.478,25.2686
62.29,-3.89909,12.0565,-1.24062,13.9771,108.215,22.7051
62.295,-4.01406,12.0517,-1.2502,13.855,113.403,20.2026
62.3,-4.2296,12.023,-1.14961,13.5498,117.065,17.5171
62.305,-4.46432,11.9607,-1.07776,13.0615,119.629,14.8926
62.31,-4.63676,11.8362,-0.910103,12.6953,120.789,12.5122
62.314,-4.87626,11.7164,-0.713717,13.1226,120.544,10.3149
62.319,-5.08223,11.6111,-0.536489,13.6719,119.324,8.54492
62.324,-5.24031,11.5536,-0.387995,14.0991,117.31,6.65283
62.329,-5.34568,11.4578,-0.249086,14.2822,115.051,4.57764
62.334,-5.39359,11.2949,-0.0862201,14.6484,112.793,2.50244
62.339,-5.42712,11.1464,0.0479022,15.3198,110.291,1.0376
62.344,-5.55644,11.0458,0.114963,16.6626,107.422,0.12207
62.348,-5.79116,11.0075,0.22513,18.4937,103.76,-0.488281
62.353,-5.99713,11.0267,0.407154,20.2637,99.2432,-1.46484
62.358,-6.10251,11.1177,0.584382,21.8506,93.9941,-2.44141
62.363,-6.30369,11.1512,0.704132,22.8271,87.7075,-3.35693
62.368,-6.43781,11.0985,0.814308,23.2544,80.7495,-4.15039
62.373,-6.54798,10.9836,0.866998,23.2544,72.937,-5.12695
62.378,-6.52882,10.7728,0.852626,22.8271,65.0024,-6.65283
62.383,-6.48571,10.5764,0.905316,22.522,57.251,-8.66699
62.388,-6.45218,10.38,0.857414,22.2778,49.9878,-10.6812
62.392,-6.37554,10.2603,0.871785,22.0947,43.2739,-12.6343
62.397,-6.38034,10.1166,1.01549,22.3389,36.7432,-14.5264
62.402,-6.34681,10.1166,1.2023,22.7051,30.8838,-16.7847
62.407,-6.28453,10.1836,1.28373,23.3765,25.8179,-19.2871
62.412,-6.17436,10.3321,1.35559,23.8037,21.4233,-22.2168
62.417,-6.07856,10.4567,1.36037,23.8037,17.395,-25.1465
62.422,-5.99713,10.5285,1.40348,22.8271,13.6719,-28.4424
62.427,-5.95402,10.5668,1.39869,21.1182,10.498,-32.5317
62.431,-5.83427,10.4758,1.36516,19.4092,7.75146,-36.9263
62.436,-5.65225,10.3992,1.36037,17.8223,5.61523,-41.5649
62.441,-5.48938,10.3225,1.31726,16.7847,4.15039,-46.0815
62.446,-5.38879,10.2938,1.3029,15.625,2.92969,-50.7202
62.451,-5.30737,10.2507,1.27415,14.3433,2.01416,-55.1758
62.456,-5.23072,10.2363,1.27894,12.9395,1.15967,-59.8144
62.461,-5.17803,10.2315,1.24541,11.4136,0.793457,-64.6362
62.465,-5.10618,10.2794,1.1544,9.76562,0.488281,-69.2749
62.471,-5.01038,10.289,1.05381,7.8125,0.12207,-73.9136
62.476,-4.87626,10.2794,0.943634,5.79834,0.12207,-78.6133
62.48,-4.76609,10.3752,0.871785,4.08936,0.427246,-82.8247
62.485,-4.68944,10.5525,0.790352,2.74658,0.732422,-86.6699
62.491,-4.58407,10.8159,0.675399,1.28174,1.28174,-90.4541
62.496,-4.44037,11.0842,0.536489,-0.366211,1.89209,-93.9941
62.5,-4.29188,11.4338,0.421526,-2.13623,2.44141,-97.5952
62.506,-4.23919,11.7979,0.340093,-4.02832,2.92969,-100.83
62.511,-4.15775,12.0661,0.239501,-6.16455,2.56348,-103.699
62.515,-4.16734,12.4206,0.196396,-8.23975,1.40381,-106.384
62.52,-4.11943,12.7511,0.205971,-10.376,-0.610352,-108.704
62.526,-3.98053,13.096,0.215555,-12.5122,-2.92969,-111.023
62.531,-3.81766,13.4983,0.287404,-14.7705,-5.12695,-113.647
62.535,-3.63564,13.848,0.340093,-17.0898,-6.46973,-116.028
62.541,-3.49194,14.1977,0.340093,-19.5923,-7.8125,-117.737
62.546,-3.5111,14.4372,0.349677,-22.2168,-9.21631,-118.958
62.55,-3.53026,14.6192,0.340093,-24.9023,-10.8643,-119.995
62.555,-3.56379,14.7868,0.320934,-27.4658,-12.7563,-121.338
62.561,-3.53505,14.9353,0.359252,-29.6631,-15.1978,-122.742
62.566,-3.61648,15.0599,0.488587,-31.5552,-17.6392,-123.901
62.57,-3.55421,15.2227,0.455056,-33.3252,-19.4702,-125
62.575,-3.40572,15.3138,0.459844,-35.3394,-20.813,-126.465
62.581,-3.27638,15.2659,0.39757,-37.8418,-21.3013,-128.296
62.585,-3.10394,15.0551,0.301775,-40.5884,-20.6909,-130.371
62.59,-2.9315,14.7389,0.158069,-43.0908,-19.4092,-132.446
62.596,-2.79738,14.3893,0.0670612,-45.166,-17.6392,-134.766
62.601,-2.62494,14.0204,-0.0239462,-45.8984,-14.8315,-136.841
62.605,-2.40939,13.6995,-0.0814328,-45.7764,-11.5967,-138.855
62.61,-2.24653,13.4792,-0.114963,-45.2881,-7.99561,-140.869
62.616,-2.11719,13.2349,-0.244289,-44.6777,-3.78418,-142.944
62.621,-2.00703,12.9714,-0.253873,-43.9453,0.488281,-145.325
62.625,-1.96871,12.6792,-0.268245,-43.2129,4.5166,-147.522
62.631,-1.94475,12.4062,-0.335306,-42.1753,8.42285,-149.353
62.636,-1.91602,12.0565,-0.387995,-41.0156,11.7187,-151.123
62.64,-1.89685,11.7883,-0.378411,-39.3066,14.1602,-152.954
62.645,-1.89206,11.5967,-0.359252,-37.4756,16.0522,-154.419
62.651,-1.9256,11.4386,-0.316147,-35.5225,17.5171,-155.396
62.656,-1.95913,11.2853,-0.301775,-33.3862,18.1274,-155.823
62.66,-2.0166,11.2135,-0.253873,-31.189,17.7002,-156.067
62.666,-2.11719,11.1081,-0.215555,-28.9917,15.9302,-156.128
62.67,-2.16031,11.0075,-0.177227,-27.2827,13.1226,-155.884
62.675,-2.2609,10.9069,-0.177227,-25.8789,9.46045,-155.457
62.68,-2.31838,10.792,-0.153281,-24.8413,5.00488,-154.663
62.685,-2.38544,10.6962,-0.158069,-23.6206,-0.061035,-153.442
62.69,-2.44771,10.5525,-0.105379,-22.0337,-5.37109,-151.672
62.695,-2.44771,10.5237,-0.0958045,-20.9351,-10.8643,-149.658
62.7,-2.45729,10.5046,-0.105379,-19.9585,-16.6626,-147.4
62.705,-2.49082,10.4758,-0.119751,-19.4092,-22.522,-144.836
62.709,-2.47166,10.4231,-0.134122,-18.9209,-28.0151,-141.968
62.714,-2.43334,10.3609,-0.0910074,-18.4937,-33.1421,-139.282
62.719,-2.37586,10.2507,-0.119751,-18.1274,-37.9028,-136.414
62.724,-2.32316,10.1309,-0.134122,-17.7612,-42.1753,-132.996
62.729,-2.28963,10.016,-0.143697,-17.5781,-45.8984,-129.456
62.734,-2.28963,9.89143,-0.119751,-17.395,-49.5605,-125.793
62.739,-2.25132,9.75731,-0.129335,-17.2729,-53.0395,-121.948
62.743,-2.213,9.63756,-0.129335,-16.9067,-56.5796,-117.859
62.748,-2.19384,9.5705,-0.0862201,-16.6016,-59.6924,-113.831
62.753,-2.14115,9.50822,-0.0910074,-16.3574,-62.3169,-109.68
62.758,-2.04535,9.46991,-0.0431149,-16.2964,-64.4531,-105.835
62.763,-1.93518,9.36932,-0.00478728,-16.2964,-65.7349,-102.173
62.768,-1.81543,9.23999,0.00478728,-16.7236,-65.7959,-98.938
62.773,-1.68131,9.07234,0.0143716,-16.9678,-64.8193,-95.7031
62.778,-1.60466,8.89031,0.0574768,-16.9067,-63.2324,-92.5903
62.783,-1.51844,8.68434,0.0239462,-16.7847,-61.2793,-89.4165
62.787,-1.49449,8.52148,0.0479022,-16.4795,-59.2651,-86.1816
62.792,-1.45618,8.35383,0.0958045,-16.1743,-57.251,-83.0078
62.797,-1.39869,8.21013,0.124538,-15.9302,-55.3589,-79.834
62.802,-1.36995,8.12869,0.0862201,-15.8081,-53.5278,-76.7212
62.807,-1.36516,8.07122,0.0910074,-15.686,-51.7578,-73.4863
62.812,-1.31247,7.99457,0.134122,-15.5029,-49.9878,-70.2515
62.817,-1.26936,7.985,0.134122,-15.3809,-48.1567,-66.7725
62.821,-1.20709,7.96104,0.124538,-15.4419,-46.1426,-63.2935
62.826,-1.16398,8.01374,0.177227,-15.686,-44.1894,-60.0586
62.831,-1.12087,8.0329,0.186812,-16.3574,-41.8701,-56.5796
62.836,-1.06338,7.94668,0.124538,-17.0898,-39.3677,-52.8564
62.841,-1.01069,7.87962,0.129335,-17.7612,-36.9873,-49.1943
62.846,-0.953218,7.83172,0.0766455,-18.1274,-34.3018,-45.3491
62.851,-0.890944,7.7886,0.0526895,-18.3105,-31.4941,-41.0156
62.856,-0.862211,7.81256,0.0335306,-18.4937,-28.4424,-36.3159
62.86,-0.847839,7.85087,0.0622739,-18.7378,-25.3296,-31.4941
62.866,-0.843052,7.86046,0.0335306,-19.3481,-22.3999,-26.3061
62.871,-0.843052,7.87482,0.0191589,-20.0806,-19.5923,-21.1182
62.875,-0.838255,7.8844,0.0287433,-20.874,-16.7847,-15.625
62.881,-0.895741,7.92751,0.0431149,-21.4844,-14.0991,-9.94873
62.886,-0.943634,7.97541,-0.00958437,-22.0947,-11.5967,-3.66211
62.89,-0.96759,8.076,-0.0526895,-22.3999,-8.97217,2.86865
62.895,-1.02507,8.23887,-0.110166,-22.522,-6.28662,9.58252
62.901,-1.04902,8.44484,-0.119751,-22.9492,-3.2959,16.1743
62.906,-0.986749,8.60291,-0.158069,-23.7427,-0.366211,22.583
62.91,-1.01069,8.74662,-0.249086,-24.8413,2.99072,29.1748
62.916,-1.00112,8.86157,-0.287404,-25.6348,6.53076,35.8276
62.921,-1.03465,8.97653,-0.330509,-26.123,10.376,42.3584
62.925,-1.12087,9.07234,-0.416729,-26.6113,13.9771,49.1333
62.93,-1.1065,9.16334,-0.450259,-27.2827,17.8223,55.6641
62.936,-1.02507,9.23041,-0.455056,-27.832,22.4609,61.8286
62.941,-0.996333,9.2831,-0.498162,-28.4424,27.6489,67.3828
62.945,-0.895741,9.29747,-0.617912,-28.6255,33.5083,73.2422
62.95,-0.775991,9.36932,-0.699345,-28.1372,40.4053,79.2847
62.956,-0.661027,9.56091,-0.718504,-27.0386,48.0347,85.2661
62.96,-0.613125,9.82437,-0.771194,-25.5737,56.5186,91.4307
62.965,-0.637071,10.1166,-0.866998,-24.4141,65.2466,97.8393
62.971,-0.747247,10.4758,-0.953218,-23.6206,73.6694,104.004
62.976,-0.876573,10.8303,-0.977164,-22.7661,81.4819,109.863
62.98,-1.10171,11.0937,-1.01069,-22.522,88.3789,115.417
62.985,-1.33163,11.2853,-1.06338,-22.7661,93.8721,120.544
62.991,-1.56634,11.4817,-1.07776,-23.1934,98.2666,125.305
62.996,-1.72921,11.5967,-1.08255,-23.9258,101.624,129.944
63,-1.87769,11.6446,-1.17356,-24.4751,104.431,134.338
63.006,-1.99744,11.6781,-1.09213,-24.4751,106.445,138.367
63.011,-2.13635,11.7164,-0.996333,-23.7427,107.849,142.395
63.015,-2.34233,11.817,-0.862211,-22.8271,108.643,146.423
63.02,-2.50998,11.9799,-0.804724,-21.9116,108.582,150.33
63.026,-2.71116,12.0948,-0.766406,-20.9961,107.422,153.748
63.031,-2.86923,12.2386,-0.723291,-20.6299,105.896,156.433
63.035,-3.01294,12.3439,-0.761619,-20.3247,103.577,158.752
63.041,-3.16622,12.387,-0.761619,-20.0195,100.952,160.645
63.046,-3.26202,12.4062,-0.79515,-19.8975,98.2056,162.109
63.05,-3.34344,12.4062,-0.843052,-19.5312,95.459,162.842
63.055,-3.4153,12.3152,-0.847839,-19.4092,92.5293,163.086
63.061,-3.51588,12.1715,-0.88137,-19.104,89.2944,162.842
63.065,-3.559,12.0038,-0.88137,-18.8599,85.7544,162.292
63.07,-3.6548,11.8697,-0.833467,-18.3105,81.9092,161.499
63.075,-3.69312,11.7643,-0.833467,-17.0898,78.0029,160.339
63.08,-3.69791,11.726,-0.847839,-15.3198,73.6084,159.18
63.085,-3.70749,11.8314,-0.761619,-13.3667,69.1528,157.593
63.09,-3.69791,11.9128,-0.74246,-11.3525,64.5142,155.457
63.095,-3.69312,11.9655,-0.732876,-9.58252,59.4482,152.893
63.099,-3.67875,12.0134,-0.637071,-7.8125,54.3823,150.085
63.104,-3.7027,12.0996,-0.584382,-5.98144,49.1333,146.851
63.109,-3.68833,12.205,-0.512533,-3.78418,43.7622,143.494
63.114,-3.65001,12.3391,-0.469428,-1.70898,38.0249,140.015
63.119,-3.62127,12.5116,-0.39757,0.610352,32.1655,136.169
63.124,-3.58774,12.6265,-0.364039,2.62451,25.9399,132.202
63.129,-3.59732,12.7559,-0.31135,4.5166,19.5923,127.93
63.134,-3.56379,12.8086,-0.263448,5.92041,13.2446,123.413
63.138,-3.52068,12.866,-0.234714,7.20215,7.01904,118.774
63.143,-3.48235,12.8613,-0.205971,8.30078,1.28174,113.708
63.148,-3.39613,12.8277,-0.220342,9.15527,-3.90625,108.643
63.153,-3.33387,12.7176,-0.201183,10.0098,-8.30078,103.638
63.158,-3.21412,12.5978,-0.191599,10.8032,-11.4746,98.6328
63.163,-3.13747,12.4206,-0.191599,11.6577,-13.6108,93.5669
63.168,-3.02731,12.2481,-0.119751,12.5122,-14.2822,88.6841
63.173,-2.91713,12.114,-0.177227,13.4277,-13.7329,83.9844
63.178,-2.83571,11.9368,-0.253873,14.0381,-11.8408,79.4678
63.182,-2.71595,11.75,-0.292191,14.8315,-8.97217,75.1953
63.187,-2.65368,11.5823,-0.273032,15.564,-5.18799,71.0449
63.192,-2.58184,11.362,-0.229927,16.2354,-0.427246,67.1997
63.197,-2.58184,11.1799,-0.201183,16.6016,4.88281,63.5376
63.202,-2.55309,11.0363,-0.186812,16.8457,10.498,60.4248
63.207,-2.58184,10.8494,-0.148494,17.2729,16.7236,57.4341
63.212,-2.60099,10.6626,-0.114963,17.5781,23.2544,54.5654
63.216,-2.5962,10.495,-0.0670612,18.0054,29.541,51.9409
63.221,-2.61537,10.3609,0.0143716,18.5547,35.6445,49.6216
63.226,-2.692,10.2938,0.110166,19.043,41.4429,47.5464
63.231,-2.72074,10.2172,0.153281,19.165,46.875,45.3491
63.236,-2.73512,10.1166,0.177227,18.7988,52.124,43.396
63.241,-2.79259,9.99202,0.268245,18.1274,57.0679,41.5649
63.246,-2.80218,9.89143,0.273032,17.5781,62.0117,39.7339
63.251,-2.8836,9.78605,0.205971,16.7847,66.4673,38.208
63.256,-2.89797,9.66151,0.229927,16.1743,70.2515,36.9263
63.261,-2.9794,9.52738,0.220342,15.564,73.4863,35.8276
63.265,-3.07041,9.46991,0.201183,15.1978,76.0498,34.668
63.27,-3.09437,9.44596,0.22513,14.5874,78.125,33.7524
63.276,-3.11831,9.41243,0.273032,13.855,79.9561,32.959
63.281,-3.15663,9.39327,0.253873,13.0005,81.7261,32.1655
63.285,-3.18059,9.33578,0.287404,11.9019,83.1909,31.25
63.291,-3.15663,9.28788,0.31135,10.8032,84.4116,30.2124
63.296,-3.19016,9.24956,0.34488,9.82666,85.6934,29.2358
63.3,-3.15185,9.21603,0.335306,9.0332,87.2192,28.5645
63.305,-3.11353,9.22562,0.277819,8.36182,88.623,27.832
63.311,-3.10394,9.22562,0.22513,7.56836,90.332,27.2217
63.316,-3.08478,9.19209,0.119751,6.65283,92.2851,26.5503
63.32,-3.05604,9.18729,0.0574768,5.92041,94.3603,25.9399
63.325,-3.07041,9.25915,0.0814328,5.79834,96.3745,25.5737
63.331,-3.07041,9.39327,0.105379,5.79834,98.8159,25.3906
63.335,-3.03209,9.58966,0.0574768,5.92041,101.257,25.0854
63.34,-3.04647,9.78605,0,5.79834,103.821,24.5972
63.346,-2.99856,9.96807,-0.0479022,5.5542,106.689,23.9258
63.351,-3.00815,10.1405,0.0191589,5.37109,109.985,23.1323
63.355,-3.02731,10.2746,0.220342,5.43213,113.403,22.4609
63.36,-3.03209,10.3992,0.392783,5.98144,116.333,21.6675
63.366,-3.04647,10.5046,0.670602,6.7749,119.263,20.2637
63.371,-2.87881,10.6435,1.11129,7.93457,122.925,17.5171
63.375,-2.53393,10.6914,1.53281,9.0332,128.479,13.7329
63.381,-2.19384,10.6674,1.83937,9.8877,136.78,9.58252
63.386,-1.83937,10.5812,2.03097,10.6812,149.109,4.88281
63.39,-1.41306,10.3944,2.0214,11.7798,165.649,-0.12207
63.395,-1.19751,10.0734,1.81543,13.0615,185.181,-4.88281
63.401,-1.13045,9.68546,1.48491,14.4043,206.177,-9.15527
63.406,-1.22146,9.27352,1.14961,15.564,227.356,-13.6108
63.41,-1.21667,8.87115,0.775991,16.7236,248.474,-18.4326
63.416,-1.2023,8.53106,0.469428,18.3105,269.104,-23.1934
63.421,-1.26457,8.2245,0.287404,20.2026,288.452,-27.3437
63.425,-1.44181,8.0329,0.229927,22.2778,305.908,-30.6396
63.43,-1.69568,7.86046,0,23.8647,321.472,-34.1187
63.436,-1.76753,7.75507,-0.114963,25.0244,336.609,-38.8794
63.441,-1.65256,7.75507,-0.119751,26.6113,352.6,-44.8608
63.445,-1.60946,7.74071,-0.186812,28.6865,367.493,-49.4995
63.45,-1.76274,7.79818,-0.316147,30.8228,380.31,-51.7578
63.456,-2.11719,7.8365,-0.277819,32.7759,390.137,-53.5889
63.46,-2.43813,8.01374,-0.177227,34.9121,397.4,-56.7017
63.465,-2.36628,8.34904,-0.239501,36.9263,405.457,-61.4624
63.47,-2.03577,8.78972,-0.459844,39.0625,414.856,-66.9556
63.475,-1.75315,9.12024,-0.680186,40.9546,424.683,-71.4111
63.48,-1.71484,9.422,-0.929272,42.1753,434.57,-74.2188
63.485,-2.08846,9.72857,-1.30768,42.2974,441.833,-75.2563
63.49,-2.70637,9.92496,-1.7771,41.626,445.923,-75.9277
63.494,-3.24285,10.0351,-2.10762,41.5649,447.021,-78.2471
63.499,-3.71707,10.2698,-2.31838,42.1143,444.824,-80.9936
63.504,-4.21044,10.6387,-2.49561,42.2974,438.721,-81.7871
63.509,-4.91458,11.1368,-2.90276,41.1987,428.406,-79.2847
63.514,-5.86301,11.5823,-3.50631,38.7573,414.185,-75.2563
63.519,-6.61025,12.0038,-3.74581,35.5225,396.667,-72.7539
63.524,-7.06052,12.5643,-3.82724,30.9448,377.136,-71.4111
63.529,-7.56826,13.0433,-4.43078,25.3296,357.3,-69.0918
63.534,-8.10953,13.3115,-5.0487,19.7144,337.524,-65.918
63.538,-8.63644,13.4408,-5.293,13.0615,315.491,-63.7207
63.543,-9.0915,13.46,-5.47981,4.69971,290.649,-61.7676
63.548,-9.47949,13.4169,-5.71452,-5.31006,263.062,-59.2041
63.553,-9.89143,13.3977,-5.76241,-16.9678,232.178,-55.1758
63.558,-10.2698,13.3594,-5.50854,-30.4565,197.083,-50.354
63.563,-10.5237,13.3403,-5.18282,-45.2881,158.752,-44.7998
63.568,-10.5333,13.3786,-4.76609,-61.1572,118.774,-39.1235
63.573,-10.3034,13.3163,-4.2296,-77.2095,79.2847,-33.2031
63.577,-9.84832,13.163,-3.65001,-91.5527,41.8701,-26.6113
63.582,-9.3789,12.9571,-3.03209,-103.333,6.89697,-18.9209
63.587,-9.08191,12.593,-2.37107,-111.755,-26.8555,-10.6812
63.592,-9.07234,12.2769,-1.825,-117.065,-62.5,-2.2583
63.597,-9.38369,12.0182,-1.3029,-120.911,-102.478,5.85938
63.602,-9.81479,11.8362,-0.88137,-124.39,-146.912,13.2446
63.607,-9.88185,11.7739,-0.593966,-128.052,-194.214,18.8599
63.611,-9.35016,11.6733,-0.244289,-131.714,-241.028,21.9727
63.616,-8.39694,11.4817,-0.0287433,-134.521,-283.447,22.583
63.621,-7.18027,11.1752,0.244289,-136.169,-318.359,20.9961
63.626,-5.86301,10.6387,0.25866,-135.986,-344.116,17.7002
63.631,-4.68944,9.9058,0.119751,-132.568,-361.145,13.6108
63.636,-3.78892,9.04838,0.0335306,-124.268,-371.155,9.09424
63.641,-3.13747,8.45441,0.129335,-112.366,-376.221,3.96728
63.646,-2.65847,8.15744,0.153281,-98.8769,-377.258,-1.28174
63.651,-2.18905,8.12391,0.253873,-85.7544,-375.183,-7.26318
63.656,-1.78669,8.32509,0.459844,-74.2188,-370.361,-13.4277
63.66,-1.37474,8.66997,0.646656,-64.7583,-363.098,-19.4702
63.666,-0.991536,8.87115,0.646656,-56.6406,-353.76,-25.4517
63.671,-0.665815,8.93343,0.756822,-48.0957,-343.14,-31.1279
63.676,-0.536489,8.8999,0.972377,-39.6729,-331.177,-37.2925
63.68,-0.330509,9.00528,1.22146,-30.5176,-318.298,-43.335
63.686,-0.25866,9.40285,1.61903,-22.583,-305.115,-48.0347
63.691,-0.316147,9.89622,1.734,-17.5171,-291.809,-51.9409
63.695,-0.4311,10.1405,1.76753,-12.8174,-278.076,-56.2134
63.7,-0.4311,10.2363,1.89206,-7.32422,-264.343,-61.0352
63.706,-0.502959,10.4135,2.1651,-1.2207,-250.671,-65.1855
63.71,-0.560435,10.7153,2.40939,4.39453,-237.244,-68.1152
63.715,-0.670602,11.1608,2.52435,8.72803,-224.06,-70.3735
63.721,-0.852626,11.544,2.5962,11.9019,-211.914,-72.6929
63.726,-1.04902,11.8362,2.68243,14.5264,-200.806,-75.0732
63.73,-1.24541,12.1332,2.67763,16.9067,-191.04,-77.1484
63.735,-1.42265,12.4206,2.7399,19.043,-182.312,-79.0405
63.741,-1.56634,12.7128,2.82612,20.2026,-174.255,-80.7495
63.746,-1.69568,13.0193,2.83091,20.2026,-166.199,-82.3364
63.75,-1.79626,13.3067,2.66326,19.5923,-158.142,-83.7402
63.756,-1.97828,13.4169,2.58184,18.9819,-149.658,-84.8389
63.761,-2.10282,13.4792,2.31838,18.4937,-140.625,-85.8765
63.765,-2.13635,13.5654,2.05493,17.4561,-130.493,-86.9751
63.77,-2.35191,13.4935,2.09804,15.8691,-119.141,-87.5854
63.776,-2.50519,13.187,1.88249,14.9536,-107.544,-87.8296
63.781,-2.55788,13.0481,1.80584,14.0381,-97.229,-87.2803
63.785,-2.58662,13.0768,1.80584,11.7187,-87.2192,-85.9985
63.791,-2.61537,12.9666,1.38912,8.17871,-76.6602,-84.9609
63.796,-2.52915,12.617,1.04902,5.31006,-66.3452,-84.6558
63.801,-2.36628,12.1571,0.934059,3.96728,-55.7861,-84.9609
63.805,-2.14115,11.7643,0.723291,2.99072,-44.3726,-85.2051
63.811,-1.93518,11.4961,0.65624,2.31934,-33.1421,-85.144
63.816,-1.93518,11.3045,0.694558,1.34277,-23.1934,-84.5947
63.82,-1.98307,11.2087,0.699345,-0.488281,-15.5029,-83.6792
63.825,-2.05013,11.1321,0.713717,-3.60107,-10.0098,-83.2519
63.831,-2.02619,11.0075,0.646656,-7.14111,-7.08008,-83.7402
63.835,-1.89685,10.768,0.622709,-9.8877,-5.5542,-84.6558
63.84,-1.68609,10.4758,0.651443,-11.7798,-4.88281,-85.4492
63.846,-1.44659,10.2603,0.665815,-13.3667,-4.27246,-86.1816
63.851,-1.29331,9.98723,0.603541,-14.8315,-3.479,-86.4868
63.855,-1.2502,9.77168,0.646656,-15.9302,-2.74658,-86.6089
63.86,-1.23583,9.59924,0.661027,-16.7236,-2.19727,-86.792
63.865,-1.24062,9.4268,0.684973,-16.9678,-1.95312,-87.1582
63.87,-1.27415,9.31184,0.670602,-17.395,-2.2583,-87.2192
63.875,-1.346,9.22082,0.689771,-17.7612,-3.17383,-87.0972
63.88,-1.41785,9.1346,0.723291,-18.0054,-4.63867,-87.0361
63.885,-1.49928,9.09628,0.780778,-18.3105,-6.53076,-86.6089
63.889,-1.5424,9.11544,0.862211,-19.2261,-8.66699,-85.8765
63.894,-1.55676,9.12981,0.689771,-21.0571,-10.3149,-84.7778
63.899,-1.54718,9.01485,0.48379,-22.2778,-11.3525,-83.6792
63.904,-1.57113,8.79451,0.421526,-22.3389,-11.8408,-82.8857
63.909,-1.4897,8.59333,0.316147,-21.3623,-11.7187,-82.2754
63.914,-1.44659,8.42568,0.268245,-19.9585,-10.8032,-81.4209
63.919,-1.44659,8.31072,0.253873,-18.0664,-9.46045,-80.0171
63.924,-1.52323,8.3203,0.234714,-16.4185,-7.93457,-78.0029
63.929,-1.66693,8.37299,0.196396,-15.1978,-6.95801,-75.8667
63.933,-1.85375,8.38257,0.205971,-14.5874,-6.71387,-73.7915
63.938,-1.96871,8.41131,0.210758,-14.4043,-7.32422,-71.8384
63.943,-2.01182,8.43047,0.220342,-14.4653,-8.36182,-69.7021
63.948,-2.0214,8.46879,0.22513,-14.4043,-10.0708,-67.3218
63.953,-2.03097,8.48316,0.244289,-14.0991,-11.4746,-64.6973
63.958,-1.98307,8.50711,0.263448,-13.6719,-12.5732,-62.0117
63.963,-1.96391,8.52627,0.282616,-13.4888,-13.2446,-59.5093
63.968,-1.87291,8.5119,0.316147,-13.4277,-13.1836,-57.0068
63.972,-1.82022,8.46879,0.359252,-13.3057,-12.3901,-54.6265
63.977,-1.78669,8.41131,0.354465,-13.2446,-11.2305,-52.2461
63.982,-1.75794,8.35862,0.330509,-13.4277,-9.64355,-49.6826
63.987,-1.71004,8.25324,0.31135,-13.0005,-7.62939,-46.6919
63.992,-1.63819,8.17181,0.282616,-12.3901,-5.31006,-43.9453
63.997,-1.5855,8.04247,0.196396,-11.5356,-2.62451,-41.2598
64.002,-1.49928,7.94188,0.167653,-10.1318,0.366211,-38.6353
64.006,-1.44181,7.90835,0.0958045,-8.48389,3.54004,-35.8276
64.011,-1.46575,7.8844,0.158069,-6.71387,6.7749,-32.7759
64.016,-1.46575,7.97541,0.177227,-4.82178,9.64355,-29.7241
64.021,-1.45618,8.08079,0.114963,-3.11279,12.2681,-26.3061
64.026,-1.46096,8.2245,0.0574768,-1.15967,14.4653,-22.8271
64.031,-1.52803,8.40652,0.0479022,0.366211,15.9912,-19.5312
64.036,-1.57593,8.59333,0.0239462,1.89209,16.9067,-16.5405
64.041,-1.5424,8.75619,0.0431149,3.2959,17.4561,-13.5498
64.046,-1.55197,8.89031,0.0574768,4.5166,17.5171,-10.3149
64.051,-1.54718,9.15856,0.0622739,5.43213,17.395,-6.95801
64.055,-1.59509,9.35016,0.0479022,6.16455,17.2729,-3.60107
64.061,-1.63819,9.57529,0.0479022,6.40869,16.9067,-0.244141
64.066,-1.60946,9.75252,-0.00958437,6.46973,16.5405,2.92969
64.07,-1.59987,9.93934,-0.0335306,6.40869,16.3574,6.16455
64.075,-1.57113,10.1357,-0.0718484,6.5918,16.5405,9.52148
64.081,-1.57593,10.38,-0.100592,6.71387,17.1509,12.8784
64.085,-1.5376,10.6099,-0.167653,6.65283,18.0664,16.2964
64.09,-1.47054,10.8111,-0.167653,6.10351,19.4092,19.7144
64.096,-1.45618,10.9788,-0.22513,5.18799,21.2402,22.8271
64.101,-1.42265,11.0842,-0.296978,4.39453,23.4985,25.7568
64.105,-1.35079,11.1368,-0.383208,3.35693,26.2451,28.7476
64.11,-1.34121,11.1991,-0.48379,2.38037,29.541,31.6772
64.116,-1.2981,11.2566,-0.589179,1.64795,33.4473,34.6069
64.121,-1.19751,11.3284,-0.694558,0.915527,37.9639,37.6587
64.125,-1.08255,11.453,-0.766406,0.671387,42.6636,40.8936
64.131,-1.06338,11.6015,-0.862211,0.488281,47.7905,44.0063
64.136,-1.01069,11.7883,-0.953218,0.305176,53.4058,47.1802
64.14,-0.986749,11.9559,-1.01069,0.12207,58.96,50.5371
64.145,-0.981961,12.1092,-1.03944,-0.488281,64.3921,53.5889
64.151,-1.02028,12.2817,-1.04902,-0.671387,69.7632,56.9458
64.156,-1.09213,12.3966,-1.02985,-0.915527,74.707,59.9365
64.16,-1.18314,12.4972,-1.00591,-0.976562,79.1016,63.1103
64.166,-1.3029,12.5978,-0.938846,-0.976562,83.0078,66.1011
64.171,-1.42743,12.6361,-0.910103,-1.28174,85.9985,69.0918
64.176,-1.61903,12.5547,-0.862211,-1.70898,88.1348,72.0215
64.18,-1.84416,12.4781,-0.771194,-1.83106,89.5386,74.646
64.186,-1.95434,12.3918,-0.704132,-1.52588,90.3931,77.5757
64.191,-2.09804,12.2577,-0.608338,-0.854492,90.5151,80.5054
64.195,-2.2561,12.1523,-0.464631,0.244141,90.332,83.4351
64.2,-2.37107,12.0469,-0.325721,1.52588,89.6606,86.1206
64.206,-2.53393,11.8601,-0.186812,2.86865,88.623,88.6841
64.21,-2.76385,11.7021,-0.0479022,4.57764,86.6699,91.0644
64.215,-2.99378,11.5153,0.0479022,6.40869,83.9233,93.5059
64.221,-3.19016,11.3237,0.22513,8.42285,80.1392,95.7642
64.226,-3.42009,11.1752,0.364039,10.8643,75.5005,97.9004
64.23,-3.55421,11.0889,0.455056,13.0005,70.1904,99.6704
64.235,-3.61648,11.0027,0.613125,15.0757,64.209,100.891
64.241,-3.76018,10.9117,0.756822,17.0288,58.0444,101.746
64.246,-3.83682,10.7872,0.866998,19.104,51.5137,102.173
64.25,-3.87993,10.6578,0.9149,21.0571,44.9829,101.807
64.255,-3.88472,10.4519,0.991536,22.8882,38.5742,101.074
64.26,-3.87515,10.3225,1.07297,24.9023,32.2876,100.037
64.265,-3.78413,10.2124,1.09691,26.7944,26.3672,98.938
64.27,-3.67396,10.1693,1.13524,28.7476,20.874,97.4121
64.275,-3.56858,10.1213,1.01549,30.5786,15.8691,95.2759
64.28,-3.42488,10.0926,0.938846,32.0435,11.5356,92.7734
64.284,-3.23328,10.083,0.862211,33.4473,7.93457,90.1489
64.289,-3.08478,10.0351,0.747247,34.668,5.24902,87.2192
64.294,-2.86444,10.0399,0.598753,35.6445,3.41797,84.1675
64.299,-2.70637,10.107,0.48379,36.5601,2.07519,81.1157
64.304,-2.55309,10.2124,0.39757,37.4756,1.34277,78.064
64.309,-2.42855,10.3704,0.296978,38.147,1.09863,74.9512
64.314,-2.27527,10.5046,0.177227,38.4521,1.40381,71.8384
64.319,-2.18905,10.6435,0.134122,38.5742,2.13623,68.7866
64.324,-2.11719,10.7776,0.0287433,38.269,3.05176,65.6738
64.328,-2.01182,10.8878,-0.0479022,37.9028,4.21143,62.3169
64.333,-2.00703,11.0123,-0.0814328,37.1704,5.92041,59.1431
64.338,-1.95434,11.0794,-0.0910074,36.0107,7.69043,56.0913
64.343,-1.90165,11.1368,-0.0814328,34.9731,10.0708,53.1006
64.348,-1.9256,11.1991,-0.0814328,33.6304,12.8784,50.2319
64.353,-1.87769,11.2326,-0.0814328,32.4707,16.0522,47.4853
64.358,-1.90165,11.2853,-0.0670612,31.0669,19.5923,45.166
64.362,-1.98787,11.2518,-0.0143716,29.541,23.1934,42.9077
64.367,-2.07888,11.2087,0.0958045,27.832,26.9165,40.6494
64.372,-2.14594,11.0937,0.177227,26.123,30.5176,38.6353
64.377,-2.28963,10.9404,0.273032,24.5972,34.1187,36.8042
64.382,-2.36628,10.7824,0.316147,23.0103,37.6587,35.2783
64.387,-2.5004,10.6531,0.378411,21.7285,41.0156,33.9966
64.392,-2.57704,10.4567,0.464631,20.5078,43.8232,32.959
64.397,-2.53393,10.2076,0.565223,19.2871,46.3257,31.8604
64.402,-2.50519,10.0016,0.39757,18.3716,48.4619,30.3955
64.406,-2.65847,9.88185,0.349677,17.7612,51.2695,28.3813
64.411,-2.75428,9.77168,0.536489,16.2964,56.2744,26.4893
64.416,-2.65847,9.58966,0.838255,13.4277,63.4155,24.7803
64.421,-2.4046,9.34537,1.00591,11.6577,71.9604,22.583
64.426,-2.45729,9.15856,0.934059,12.3291,80.2002,20.5078
64.431,-2.77343,9.06754,0.876573,13.916,86.3647,19.5923
64.436,-3.30034,8.98612,0.670602,14.8315,87.8296,19.5923
64.441,-3.76976,8.86157,0.584382,15.0146,83.8013,19.2261
64.445,-4.038,8.75619,0.565223,14.0991,75.1343,18.3716
64.45,-3.92784,8.63644,0.593966,13.4277,64.5752,17.7612
64.456,-3.64043,8.55022,0.651443,13.7329,54.9927,17.2729
64.46,-3.33866,8.5598,0.723291,14.0991,48.4619,16.9678
64.465,-3.09437,8.59333,0.766406,14.3433,45.2881,16.5405
64.471,-2.90756,8.62686,0.838255,14.2822,44.9829,15.9912
64.476,-2.8836,8.63644,0.74246,14.5264,46.3257,15.1367
64.48,-2.91234,8.61249,0.74246,15.1978,48.0957,14.2212
64.485,-2.96503,8.63165,0.790352,15.8081,49.6216,13.4277
64.491,-2.96982,8.6604,0.732876,16.1133,50.9644,12.5122
64.496,-2.9315,8.72745,0.65624,16.2964,52.063,11.6577
64.5,-2.90756,8.74182,0.57001,16.6016,52.9785,11.1084
64.506,-2.81654,8.83762,0.48379,16.5405,53.772,10.5591
64.511,-2.78301,8.943,0.402367,16.6626,54.5044,10.3149
64.515,-2.82134,9.07712,0.378411,16.8457,55.0537,10.0098
64.52,-2.79259,9.20166,0.407154,16.7236,55.542,9.64355
64.526,-2.78781,9.28788,0.359252,16.6016,56.0913,9.39941
64.531,-2.81654,9.43159,0.435898,16.3574,56.4575,9.21631
64.535,-2.80696,9.6184,0.459844,16.2964,56.5796,8.78906
64.541,-2.81654,9.79563,0.531692,16.1743,56.6406,8.48389
64.546,-2.91713,9.88185,0.598753,15.9302,56.5186,7.99561
64.551,-2.96982,9.93934,0.766406,15.5029,56.0913,7.14111
64.555,-2.98899,9.9058,1.03465,14.9536,55.481,6.10351
64.561,-2.96503,9.88665,1.19272,15.0757,55.0537,5.18799
64.566,-2.9794,9.90101,1.28852,15.625,54.8706,4.39453
64.57,-2.91713,9.91059,1.36037,16.1743,54.9927,3.78418
64.575,-2.86923,9.92017,1.26936,16.1133,55.4199,3.11279
64.581,-2.83571,9.82437,1.22625,15.8081,56.0303,1.89209
64.585,-2.82134,9.67109,1.19272,15.625,57.0679,0.610352
64.59,-2.75906,9.53697,1.12087,15.7471,58.1665,-0.427246
64.596,-2.80218,9.47469,1.01549,16.2964,59.3262,-1.28174
64.601,-2.82134,9.45554,0.948431,16.7847,60.3027,-2.2583
64.605,-2.83091,9.41722,0.9149,17.0898,61.0352,-3.17383
64.61,-2.80218,9.40285,0.838255,17.1509,61.3403,-4.21143
64.616,-2.84528,9.34057,0.819096,17.1509,61.0352,-5.12695
64.621,-2.92193,9.331,0.780778,17.2729,60.2417,-5.85938
64.625,-2.96503,9.27352,0.775991,17.4561,58.7769,-6.34766
64.631,-3.02731,9.25915,0.823883,17.6392,56.5186,-6.83594
64.636,-3.14227,9.331,0.866998,17.7002,53.833,-7.32422
64.64,-3.15185,9.39327,0.852626,17.9443,50.5981,-7.38525
64.645,-3.21891,9.51302,0.924475,18.4937,46.936,-7.01904
64.65,-3.26681,9.69983,0.962802,19.3481,42.7246,-6.46973
64.655,-3.31471,9.98723,1.0586,20.0195,38.0859,-5.98144
64.66,-3.37697,10.2459,1.14961,20.6299,32.8369,-5.37109
64.665,-3.44883,10.4231,1.15919,20.9351,27.2827,-4.63867
64.67,-3.42966,10.7201,1.27894,20.9961,21.4233,-3.84522
64.675,-3.43925,10.9548,1.36516,21.3013,15.2588,-3.05176
64.679,-3.39613,11.1943,1.41785,21.3013,9.33838,-2.01416
64.684,-3.30991,11.429,1.48012,21.3623,3.78418,-1.0376
64.689,-3.24285,11.6542,1.49449,21.4844,-1.15967,-0.12207
64.694,-3.15663,11.8074,1.5376,21.9727,-5.5542,1.15967
64.699,-3.10394,12.0565,1.62862,22.4609,-9.58252,2.44141
64.704,-3.11353,12.2625,1.67172,22.9492,-13.4277,3.84522
64.709,-3.08957,12.5116,1.60946,23.0103,-17.1509,5.18799
64.714,-3.00815,12.7176,1.49449,22.7051,-20.3857,6.34766
64.719,-2.8836,12.9523,1.39869,22.0947,-22.8882,7.56836
64.723,-2.75906,13.2013,1.36995,21.6675,-25.0244,8.8501
64.728,-2.70637,13.4456,1.32684,21.1182,-26.4282,10.1318
64.733,-2.65847,13.6612,1.29331,20.2026,-27.5269,11.1694
64.738,-2.6441,13.848,1.35079,18.9209,-28.1982,12.085
64.743,-2.71595,14.0109,1.37474,17.334,-28.6255,12.8784
64.748,-2.73032,14.121,1.3029,15.5029,-28.8696,13.2446
64.753,-2.75906,14.2408,1.31726,13.4277,-29.0527,13.4888
64.757,-2.84528,14.2264,1.37953,11.3525,-29.1748,13.4277
64.762,-2.84528,14.1977,1.37474,9.09424,-29.1138,13.3057
64.767,-2.89797,14.0779,1.49449,6.89697,-29.0527,13.0005
64.772,-3.01772,13.9246,1.56156,4.5166,-29.1138,12.3901
64.777,-3.13269,13.7187,1.71004,2.2583,-29.2358,11.3525
64.782,-3.29075,13.4792,1.7819,-0.244141,-29.9072,10.0098
64.787,-3.42009,13.1151,1.89685,-2.92969,-30.8838,8.30078
64.792,-3.5111,12.708,2.05493,-5.61523,-32.1655,5.79834
64.797,-3.55421,12.296,2.0645,-8.23975,-32.4707,2.62451
64.801,-3.52547,11.8553,2.11241,-10.6201,-32.6538,-1.0376
64.806,-3.52547,11.3811,2.07409,-12.9395,-32.4707,-4.69971
64.811,-3.53026,10.9069,1.99744,-14.9536,-31.8604,-8.54492
64.816,-3.47278,10.4662,1.86332,-16.6016,-31.1279,-12.207
64.821,-3.40093,10.0974,1.75794,-17.8223,-30.6396,-16.1743
64.826,-3.30513,9.81958,1.66215,-18.4937,-30.2124,-19.8364
64.831,-3.14227,9.62798,1.5376,-19.165,-29.9683,-23.3765
64.835,-2.96025,9.5705,1.43701,-19.5312,-29.9072,-26.9165
64.84,-2.81654,9.58487,1.28852,-20.3857,-29.7241,-30.3345
64.846,-2.67763,9.66151,1.24062,-21.7895,-29.6631,-33.5083
64.851,-2.5483,9.78126,1.12566,-23.2544,-29.7852,-36.5601
64.855,-2.43813,9.93454,0.958005,-24.7803,-30.2734,-39.2456
64.86,-2.37586,10.1836,0.862211,-26.3061,-31.4941,-41.5649
64.866,-2.32316,10.4662,0.790352,-27.8931,-33.0811,-43.7012
64.871,-2.24653,10.9069,0.670602,-29.8462,-35.3394,-45.7764
64.875,-2.19863,11.3811,0.584382,-32.6538,-37.7808,-47.6074
64.881,-2.08366,11.7835,0.39757,-36.1938,-40.5273,-49.0723
64.886,-2.00703,12.1907,0.143697,-39.978,-43.396,-50.1709
64.89,-1.90644,12.617,-0.13891,-43.7622,-46.0815,-51.4526
64.895,-1.69568,13.0481,-0.268245,-47.1191,-48.4619,-52.7344
64.901,-1.42265,13.484,-0.416729,-50.5981,-49.4385,-53.4668
64.906,-1.33642,13.6947,-0.651443,-54.8096,-49.6216,-52.7954
64.91,-1.33642,13.9534,-0.603541,-58.4106,-49.8657,-52.9175
64.916,-1.16877,14.2599,-0.560435,-61.8286,-48.1567,-54.3823
64.921,-1.08255,14.3749,-0.670602,-66.4062,-46.0815,-55.1147
64.925,-1.1544,14.2983,-0.665815,-72.0825,-44.7388,-54.5044
64.93,-1.18793,14.145,-0.387995,-77.1484,-42.8467,-55.2368
64.936,-1.02028,13.8911,-0.0766455,-80.5664,-38.3301,-57.8003
64.941,-0.857414,13.6085,0.22513,-81.2378,-30.5176,-60.6689
64.945,-0.871785,13.3786,0.464631,-79.7119,-19.6533,-62.5
64.95,-1.11608,13.2157,0.670602,-77.2705,-7.32422,-63.4155
64.956,-1.56634,13.1151,0.82868,-75.5005,3.90625,-64.0259
64.96,-1.94475,12.9235,1.00112,-74.8291,12.4512,-65.1855
64.965,-2.19384,12.7367,1.12566,-74.8291,18.0664,-66.5894
64.971,-2.28963,12.5068,1.14003,-74.9512,21.0571,-67.8711
64.976,-2.31359,12.1954,1.13045,-74.646,22.522,-68.9697
64.98,-2.30401,11.8889,1.08734,-73.9746,23.1934,-70.0073
64.985,-2.37107,11.5679,1.03465,-72.8149,23.3154,-71.0449
64.991,-2.44771,11.2805,0.96759,-71.106,22.9492,-72.3877
64.996,-2.4525,10.9979,0.852626,-68.7866,22.8271,-73.9136
65,-2.38065,10.8207,0.732876,-66.4673,23.2544,-75.8057
65.006,-2.3088,10.5716,0.684973,-64.1479,24.1699,-77.5146
65.011,-2.29443,10.3369,0.593966,-61.7065,25.3296,-79.0405
65.015,-2.29922,10.1549,0.498162,-59.2041,26.4893,-80.5054
65.02,-2.28485,9.97765,0.378411,-56.8237,27.4658,-81.9702
65.026,-2.30401,9.84353,0.301775,-54.6265,27.832,-83.6182
65.031,-2.37586,9.7142,0.239501,-53.2227,27.4048,-85.2051
65.035,-2.36149,9.5705,0.143697,-52.1851,26.123,-86.6699
65.04,-2.32796,9.49385,0.105379,-51.4526,24.4141,-88.0737
65.045,-2.28963,9.38847,0,-51.0254,22.0947,-89.4165
65.05,-2.28963,9.32141,-0.110166,-50.8423,19.3481,-90.5762
65.055,-2.23694,9.23999,-0.148494,-50.9033,16.4185,-91.7358
65.06,-2.20821,9.12024,-0.220342,-51.1475,13.4277,-93.0786
65.065,-2.21779,9.05318,-0.244289,-51.4526,10.3149,-93.9941
65.07,-2.22737,8.96696,-0.320934,-52.063,7.01904,-94.7876
65.075,-2.24174,8.91426,-0.392783,-52.5513,3.78418,-95.459
65.079,-2.22258,8.85678,-0.392783,-53.2227,0.366211,-96.0693
65.084,-2.20341,8.78493,-0.407154,-53.9551,-2.99072,-96.3135
65.089,-2.19384,8.75619,-0.411942,-54.6875,-6.46973,-96.6186
65.094,-2.15072,8.7514,-0.416729,-55.3589,-9.52148,-96.5576
65.099,-2.05972,8.72745,-0.383208,-55.9692,-12.207,-96.4966
65.104,-1.94954,8.73224,-0.4311,-56.5796,-14.6484,-96.1304
65.109,-1.88728,8.72266,-0.440685,-57.0679,-16.4795,-95.52
65.114,-1.78669,8.72745,-0.450259,-57.4951,-18.0054,-94.6655
65.118,-1.66693,8.72745,-0.435898,-57.9224,-18.8599,-93.5059
65.123,-1.61425,8.74182,-0.426313,-57.9834,-19.4092,-92.1631
65.128,-1.52323,8.82325,-0.440685,-57.9834,-19.3481,-90.8203
65.133,-1.42265,8.90468,-0.455056,-57.8003,-18.9209,-89.2334
65.138,-1.35079,8.92863,-0.4311,-57.8003,-17.9443,-87.5854
65.143,-1.29331,8.96216,-0.383208,-57.6782,-16.6626,-86.0596
65.148,-1.23104,8.943,-0.368836,-57.7393,-14.8315,-84.4726
65.152,-1.18314,8.94779,-0.39757,-57.5561,-12.5122,-82.7026
65.157,-1.13045,8.93343,-0.364039,-57.0679,-9.70459,-80.7495
65.162,-1.06338,8.87115,-0.368836,-56.5186,-6.46973,-78.5522
65.167,-1.02028,8.80888,-0.378411,-55.9082,-2.62451,-76.416
65.172,-0.972377,8.77535,-0.387995,-54.9927,1.58691,-74.4019
65.177,-0.934059,8.69392,-0.440685,-54.1992,6.28662,-72.0825
65.182,-0.938846,8.61249,-0.474215,-53.1006,11.3525,-69.5801
65.187,-0.929272,8.53106,-0.517321,-51.8188,16.4795,-66.8945
65.192,-0.900529,8.44005,-0.517321,-50.415,21.7285,-64.1479
65.196,-0.905316,8.34904,-0.541277,-49.0723,26.9775,-61.2183
65.201,-0.876573,8.28197,-0.603541,-47.4243,32.2266,-58.0444
65.206,-0.871785,8.20534,-0.675399,-45.6543,37.4146,-54.6875
65.211,-0.871785,8.16702,-0.713717,-43.7622,42.4805,-51.0864
65.216,-0.905316,8.14785,-0.752035,-41.9311,47.4243,-47.4243
65.221,-0.876573,8.17181,-0.809521,-39.978,52.3682,-43.457
65.226,-0.866998,8.15265,-0.79515,-38.0859,57.1899,-39.6118
65.23,-0.895741,8.18618,-0.799937,-35.9497,61.8896,-35.2783
65.235,-0.96759,8.22929,-0.799937,-33.5693,66.2231,-30.5786
65.241,-1.0586,8.32509,-0.790352,-30.8838,69.8853,-25.8789
65.246,-1.12566,8.41131,-0.718504,-28.6255,72.998,-20.9961
65.25,-1.22625,8.48795,-0.708929,-26.4893,75.6226,-16.2964
65.256,-1.27894,8.55501,-0.646656,-24.6582,77.7588,-11.5356
