t,acc_x,acc_y,acc_z,gyr_x,gyr_y,gyr_z
55.003,0.958005,-11.2853,-3.00335,-19.5312,-95.9473,180.603
55.007,-0.0670612,-10.3369,-2.25132,-19.7144,-87.0972,172.302
55.013,-0.943634,-9.40285,-1.87291,-20.5688,-81.9092,163.086
55.017,-1.37953,-8.98612,-2.08366,-20.9961,-79.2236,153.259
55.023,-0.958005,-9.2831,-2.23216,-19.2871,-78.5522,142.822
55.027,-0.0622739,-9.69983,-2.2609,-16.5405,-80.9936,131.836
55.033,0.555648,-9.71899,-1.92081,-13.7329,-86.3647,123.169
55.038,1.03465,-9.26872,-1.29331,-13.1836,-92.102,119.019
55.042,0.162866,-8.28677,-1.05381,-16.2354,-93.3838,116.333
55.048,-1.70525,-6.94077,-1.2502,-21.2402,-84.8389,112.976
55.052,-3.21891,-5.63788,-0.96759,-26.4282,-77.9419,103.149
55.058,-4.29188,-4.36852,-0.905316,-28.6865,-76.7822,86.792
55.062,-4.40204,-3.07521,-0.675399,-28.0762,-80.9936,66.8335
55.068,-4.34935,-3.32907,0.00478728,-30.2734,-88.501,51.2695
55.072,-3.97573,-4.92895,0.560435,-31.25,-95.1538,41.0767
55.077,-2.8836,-4.75651,-0.0479022,-21.6675,-91.3696,27.5879
55.083,-2.3567,-2.17947,-0.900529,-15.564,-78.125,3.35693
55.087,-1.58071,-1.59509,-1.23104,-24.5361,-65.0635,-18.9209
55.093,0.301775,-2.34233,-0.704132,-28.8696,-52.7954,-33.6304
55.097,2.00224,-2.90276,-0.608338,-31.3721,-43.7622,-46.5088
55.103,3.171,-3.5111,-0.301775,-35.1562,-34.3628,-57.6782
55.107,3.79371,-3.86556,0.110166,-36.7432,-24.0479,-67.749
55.113,4.12901,-3.97094,0.359252,-36.438,-15.0757,-77.4536
55.117,4.21044,-3.82724,0.502959,-36.2549,-6.83594,-86.9751
55.122,3.84162,-3.66438,0.637071,-37.4756,0.976562,-96.0083
55.127,3.37697,-3.50152,0.857414,-39.1846,7.14111,-104.492
55.132,2.99378,-3.42488,1.14003,-40.5884,11.6577,-112.671
55.137,2.69679,-3.559,1.31247,-41.9311,14.8926,-120.544
55.142,2.32796,-3.76976,1.36995,-42.1143,18.3716,-128.601
55.147,1.61425,-3.93741,1.346,-41.626,21.9727,-137.146
55.152,0.910103,-3.96615,1.14961,-40.9546,24.353,-146.118
55.156,0.459844,-4.06196,0.852626,-40.1611,24.4141,-155.151
55.161,0.407154,-4.32062,0.689771,-39.1846,22.7661,-164.124
55.166,0.407154,-4.55054,0.517321,-38.0859,19.7754,-173.157
55.171,0.368836,-4.79004,0.349677,-36.377,16.1133,-181.763
55.176,0.445472,-4.93374,0.229927,-34.4238,13.4888,-190.063
55.181,0.560435,-5.02954,0.143697,-32.2266,12.4512,-198.608
55.186,0.589179,-5.18282,0.162866,-30.2124,11.4746,-207.947
55.19,0.603541,-5.37443,0.301775,-28.0151,9.27734,-217.163
55.195,0.617912,-5.56603,0.407154,-25.6958,5.7373,-225.952
55.2,0.637071,-5.75763,0.455056,-23.6206,1.0376,-234.497
55.205,0.579594,-5.9636,0.39757,-21.5454,-3.05176,-242.493
55.21,0.450259,-6.2079,0.455056,-19.8975,-6.40869,-250.427
55.215,0.378411,-6.45697,0.39757,-19.043,-10.6201,-257.935
55.22,0.507746,-6.76353,0.282616,-18.3105,-15.8081,-264.832
55.225,0.680186,-7.03657,0.292191,-17.7002,-20.813,-271.423
55.229,0.766406,-7.28565,0.191599,-17.8833,-25.3296,-278.015
55.234,0.972377,-7.60179,0.196396,-18.0664,-30.5176,-284.302
55.239,1.26457,-7.81734,0.229927,-18.4326,-34.9731,-290.1
55.244,1.33163,-8.00894,0.320934,-19.4702,-39.1846,-296.326
55.249,1.31247,-8.35383,0.201183,-20.9961,-44.4946,-303.284
55.254,1.38912,-8.77056,0.148494,-22.3999,-48.9502,-309.326
55.259,1.51844,-9.30225,0.215555,-24.1089,-52.124,-314.514
55.264,1.56156,-9.91059,0.253873,-25.6958,-55.2368,-319.458
55.269,1.50887,-10.5046,0.292191,-26.9165,-57.9224,-324.158
55.273,1.49928,-11.0698,0.368836,-27.6489,-60.5469,-328.674
55.278,1.4897,-11.6877,0.416729,-28.0151,-64.8193,-332.764
55.283,1.38912,-12.3918,0.479003,-27.9541,-70.9229,-335.632
55.288,1.20709,-13.0576,0.488587,-27.5879,-76.6602,-337.707
55.293,1.09691,-13.757,0.708929,-27.2827,-81.1767,-340.942
55.298,1.13524,-14.5426,0.675399,-26.6724,-86.7309,-343.994
55.303,1.33163,-15.2802,0.593966,-27.5269,-89.0503,-345.154
55.308,1.55676,-15.8359,0.598753,-30.3955,-85.3271,-345.825
55.312,1.39869,-16.6741,0.455056,-35.0952,-77.0874,-346.802
55.318,0.790352,-17.7519,0.507746,-40.0391,-65.8569,-347.351
55.322,-0.474215,-18.868,0.622709,-43.8843,-56.9458,-347.839
55.327,-2.11241,-19.8356,0.689771,-45.5322,-53.1006,-348.45
55.333,-3.64043,-20.3146,0.546064,-45.5933,-51.2085,-348.938
55.337,-5.1924,-20.3768,0.162866,-45.8984,-47.7905,-349.06
55.343,-6.61984,-20.3481,-0.349677,-46.7529,-41.8091,-348.389
55.347,-7.38145,-20.2044,-1.12566,-48.0957,-34.1797,-346.374
55.353,-7.24254,-20.1038,-1.99744,-49.8657,-23.8037,-343.567
55.357,-7.19943,-19.9553,-2.78781,-51.2695,-8.72803,-340.027
55.363,-7.6449,-20.2379,-3.18059,-51.6968,7.75146,-334.717
55.368,-8.66997,-21.0522,-3.3195,-52.124,18.9819,-326.66
55.373,-9.58008,-21.6845,-3.04647,-52.9175,22.1558,-316.101
55.378,-10.7057,-21.9144,-3.11831,-54.9316,19.8364,-303.833
55.382,-12.0469,-21.6749,-3.11353,-57.0679,13.5498,-289.307
55.388,-13.6277,-21.057,-3.09916,-58.7769,4.39453,-272.888
55.392,-15.285,-20.1469,-3.03209,-59.5093,-6.95801,-255.615
55.398,-16.7124,-19.2081,-2.94109,-59.021,-20.5078,-237.061
55.402,-17.8525,-18.4321,-2.51956,-57.0068,-34.729,-216.553
55.408,-18.9638,-17.8764,-1.98307,-54.5044,-48.4619,-193.848
55.413,-19.8212,-17.3831,-1.26457,-51.3916,-59.9365,-169.067
55.417,-20.5014,-16.9041,-0.526905,-47.2412,-68.6646,-143.127
55.423,-20.9899,-16.2574,0.186812,-41.748,-74.585,-116.516
55.427,-21.2534,-15.5293,0.886157,-34.3628,-78.064,-89.6606
55.433,-21.2582,-15.0503,1.3029,-24.8413,-80.8716,-62.439
55.437,-20.7409,-14.5234,1.06818,-14.7705,-81.7871,-34.668
55.443,-19.7493,-13.9917,0.359252,-5.85938,-76.7212,-6.65283
55.447,-18.547,-13.7762,-0.22513,0.610352,-65.918,20.6299
55.452,-17.0573,-16.2191,-1.7771,3.05176,-52.4292,46.4477
55.458,-14.7102,-20.4104,-4.56491,-4.15039,-46.814,74.8291
55.462,-11.6015,-16.3724,0.0383179,3.479,-36.0107,98.7549
55.468,-8.19097,-13.5414,1.50407,9.21631,-14.1602,121.277
55.472,-1.28373,-10.5956,-3.30513,4.5166,12.2681,132.324
55.478,10.174,-7.93709,-8.24844,-4.88281,27.2827,106.873
55.482,21.2342,-9.25915,-6.91203,-12.085,12.5732,62.0727
55.488,26.3308,-11.6877,-0.608338,-7.75146,-24.353,37.4146
55.493,25.4447,-10.3225,4.63676,7.62939,-46.936,49.0723
55.498,18.2213,-6.86891,7.04615,20.5078,-26.1841,76.0498
55.503,8.39694,-6.27974,6.94556,21.2402,21.7285,86.9141
55.507,2.35191,-8.88553,5.95402,16.2354,61.3403,86.853
55.512,0.584382,-13.0576,5.23551,13.1836,80.2612,92.041
55.517,0.613125,-17.0334,4.73735,11.7798,83.313,104.919
55.522,0.296978,-19.0596,3.87993,9.39941,77.2095,120.544
55.527,-1.12566,-18.6859,2.53872,5.24902,62.8662,130.31
55.532,-2.58662,-16.6214,0.354465,-1.70898,45.166,132.141
55.537,-3.45841,-14.1737,-2.05972,-10.437,36.5601,130.432
55.542,-3.35303,-12.6888,-2.98899,-16.8457,36.9263,128.174
55.547,-2.11241,-11.7308,-2.70637,-18.5547,41.2598,124.39
55.551,-1.09691,-10.5908,-2.42855,-17.6392,45.3491,119.751
55.556,-0.129335,-9.69504,-2.16988,-16.6016,46.0815,116.211
55.561,0.474215,-9.2831,-2.23694,-16.8457,43.2129,115.295
55.566,1.26936,-8.4161,-3.02731,-18.6157,39.5508,113.525
55.571,2.17468,-7.54431,-4.19607,-21.3623,40.5273,110.474
55.576,2.29922,-7.31918,-5.35047,-24.1089,48.7061,108.643
55.581,1.46096,-7.39582,-6.1552,-25.8789,59.5093,107.483
55.586,1.13524,-8.01853,-5.80074,-25.2075,68.1763,105.53
55.59,-0.17244,-8.78493,-4.87626,-21.9727,74.3408,104.614
55.595,-2.18426,-9.22082,-4.28709,-18.1274,74.0967,103.271
55.6,-3.00335,-9.23999,-4.14818,-15.0146,65.3687,98.2666
55.605,-2.78781,-9.20646,-4.09069,-12.207,51.7578,93.75
55.61,-2.35191,-9.58008,-3.93741,-8.97217,35.0342,91.0034
55.615,-1.44659,-9.79563,-3.80329,-5.98144,17.8833,88.623
55.62,-0.756822,-9.75252,-3.62606,-4.15039,5.67627,87.2803
55.624,-0.79515,-9.81479,-3.57816,-2.99072,-0.976562,87.0972
55.629,-0.79515,-9.73815,-3.58774,-2.01416,-5.5542,85.3882
55.634,-0.74246,-9.69025,-3.2716,-1.46484,-8.91113,82.6416
55.639,-1.12087,-9.74294,-2.68721,-0.610352,-13.0615,80.1392
55.644,-1.5424,-9.74294,-2.12678,0.061035,-18.6768,76.7822
55.649,-1.89206,-9.99202,-1.71004,0.244141,-24.4141,73.7305
55.654,-1.64298,-10.3321,-1.57593,0.12207,-30.3955,70.6787
55.659,-0.713717,-10.0734,-1.77231,-1.34277,-35.7666,67.627
55.663,0.48379,-9.45554,-2.08846,-4.45557,-36.7432,65.0635
55.668,0.871785,-9.07234,-2.0645,-7.20215,-33.9966,62.3169
55.673,0.531692,-9.22562,-1.84416,-8.30078,-31.5552,60.6079
55.678,0.325721,-9.46512,-1.75315,-8.91113,-30.5176,59.8755
55.683,0.479003,-9.54655,-1.88249,-10.0098,-29.8462,59.2651
55.688,0.972377,-9.4268,-2.22258,-11.8408,-28.5645,57.4951
55.693,1.33163,-9.04359,-2.49561,-13.9771,-23.9258,55.6641
55.698,1.06338,-8.82325,-2.81654,-15.1367,-17.1509,55.1758
55.702,0.440685,-8.92863,-3.20932,-14.8315,-11.7187,55.1758
55.708,0.0287433,-8.97653,-3.58295,-13.855,-8.72803,54.5044
55.712,-0.153281,-8.98132,-3.77455,-12.5732,-7.50732,52.6733
55.718,-0.316147,-8.97653,-3.7506,-11.0474,-7.50732,50.4761
55.722,-0.392783,-8.99569,-3.67875,-9.15527,-8.8501,48.4619
55.728,-0.48379,-8.8472,-3.73144,-7.32422,-11.1084,47.3022
55.732,-0.383208,-8.7514,-3.93262,-5.49316,-13.855,46.875
55.738,-0.134122,-8.73703,-4.05716,-3.66211,-17.4561,45.8984
55.743,0.134122,-8.68913,-4.00926,-1.64795,-20.3857,44.5557
55.748,0.167653,-8.71309,-3.87993,-0.12207,-21.5454,43.8232
55.753,0.124538,-8.87594,-3.52068,0.732422,-22.583,43.457
55.757,0.0574768,-8.87115,-3.17579,1.28174,-23.8647,42.6025
55.763,-0.0718484,-8.8951,-2.96982,1.15967,-24.7192,42.6025
55.767,-0.0574768,-8.96696,-2.77822,0.305176,-24.353,42.5415
55.773,0.0431149,-8.99569,-2.6441,-0.793457,-23.1323,41.9311
55.777,0.148494,-9.11544,-2.46208,-2.07519,-20.874,41.687
55.783,0.229927,-9.39806,-2.54351,-3.11279,-17.6392,41.3818
55.788,0.191599,-9.44596,-2.77343,-3.17383,-15.3198,41.0156
55.792,0.455056,-9.3789,-2.74469,-3.2959,-12.5732,41.2598
55.798,0.603541,-9.34057,-2.79259,-4.02832,-8.42285,41.9311
55.802,0.464631,-9.32141,-2.99378,-4.21143,-4.69971,42.3584
55.808,0.205971,-9.29747,-3.16143,-3.78418,-1.28174,42.8467
55.812,-0.110166,-9.27352,-3.20453,-3.54004,1.28174,42.5415
55.818,-0.296978,-9.1394,-3.23807,-3.66211,2.74658,41.5039
55.822,-0.450259,-8.9909,-3.29555,-3.78418,3.2959,41.0156
55.827,-0.320934,-9.12981,-3.32429,-3.479,3.60107,40.9546
55.833,-0.282616,-9.04359,-3.24765,-2.99072,5.18799,40.8325
55.837,-0.426313,-8.83762,-3.25722,-3.11279,7.44629,40.7104
55.843,-0.670602,-8.81368,-3.23807,-3.17383,8.72803,40.4053
55.847,-0.852626,-8.91426,-3.07041,-3.11279,8.48389,40.4663
55.853,-0.924475,-8.93343,-3.00815,-3.05176,7.38525,40.2222
55.857,-0.799937,-9.04359,-2.94109,-3.11279,6.5918,40.0391
55.863,-0.675399,-9.17293,-2.99378,-3.17383,6.46973,39.6118
55.868,-0.723291,-9.24478,-3.04647,-3.2959,6.83594,38.5132
55.873,-0.943634,-8.97175,-3.05125,-3.72314,6.65283,37.9028
55.878,-0.958005,-9.16813,-2.95066,-4.15039,4.88281,36.8652
55.882,-1.04423,-9.29747,-2.91234,-4.45557,3.60107,36.3159
55.888,-1.18793,-9.19209,-2.87881,-4.69971,3.35693,35.6445
55.892,-1.03944,-9.3789,-2.78301,-5.06592,2.62451,34.8511
55.898,-1.27894,-9.49385,-2.8884,-4.94385,0.976562,34.3018
55.902,-1.36516,-9.52738,-2.8836,-5.31006,-1.34277,34.0576
55.907,-1.346,-9.35494,-2.95546,-6.04248,-3.41797,33.1421
55.912,-1.28852,-9.45554,-2.95546,-6.34766,-5.18799,32.1655
55.917,-1.24062,-9.49385,-2.98899,-6.34766,-6.5918,31.0669
55.922,-1.33642,-9.31663,-2.96025,-6.89697,-7.20215,29.7852
55.927,-1.47054,-9.1825,-2.96503,-7.32422,-8.42285,28.7476
55.932,-1.59509,-9.14419,-2.8836,-7.56836,-10.0098,28.2593
55.937,-1.68609,-9.26394,-2.87881,-7.50732,-12.207,27.5269
55.941,-1.5855,-9.1394,-3.02731,-7.56836,-14.0991,26.9165
55.946,-1.38912,-9.08191,-2.99856,-7.99561,-15.564,26.123
55.951,-1.18793,-8.97175,-3.1279,-8.30078,-16.4185,25.8789
55.956,-1.19751,-9.00048,-3.19496,-8.36182,-17.395,25.6348
55.961,-1.14003,-9.11065,-3.19975,-8.54492,-18.8599,25.6958
55.966,-1.16398,-9.08671,-3.28118,-8.72803,-20.752,26.3061
55.971,-1.14961,-9.21125,-3.18059,-8.60596,-23.3154,26.7334
55.976,-1.14482,-9.30704,-3.16622,-8.60596,-26.123,27.71
55.981,-0.96759,-9.24956,-3.09916,-8.66699,-28.4424,29.1138
55.985,-0.814308,-9.23519,-3.02731,-8.8501,-29.7241,30.4565
55.99,-0.574807,-9.32141,-3.07041,-8.8501,-29.48,32.7759
55.995,-0.354465,-9.40763,-3.1231,-8.66699,-27.9541,35.2783
56,-0.167653,-9.31184,-3.33866,-8.97217,-24.9634,38.0859
56.005,-0.124538,-9.4268,-3.57337,-9.39941,-22.3389,40.7104
56.01,-0.110166,-9.56091,-3.57816,-9.39941,-21.1182,43.5181
56.015,-0.153281,-9.70462,-3.49194,-9.15527,-20.3857,46.5088
56.02,-0.191599,-9.98244,-3.41051,-9.0332,-19.7754,49.8047
56.024,-0.464631,-10.1549,-3.40093,-8.23975,-19.5312,53.0395
56.029,-0.340093,-10.2651,-3.35303,-7.32422,-19.4092,55.6641
56.034,-0.273032,-10.8878,-3.27638,-6.5918,-19.043,59.021
56.039,-0.560435,-11.1847,-3.30991,-5.7373,-18.6157,62.9272
56.044,-0.747247,-11.0794,-3.33866,-5.37109,-19.165,66.1621
56.049,-0.4311,-11.5488,-3.34344,-5.43213,-19.9585,68.9087
56.054,-0.330509,-11.52,-3.3626,-5.5542,-19.3481,72.5098
56.059,-0.210758,-11.5632,-3.46319,-5.98144,-18.6768,75.3174
56.063,-0.296978,-11.8027,-3.47757,-6.34766,-18.3105,78.6133
56.068,-0.622709,-11.8889,-3.28597,-6.34766,-18.4937,82.2754
56.073,-0.747247,-11.8793,-3.20453,-6.71387,-18.7378,84.4116
56.078,-0.857414,-11.908,-3.30513,-6.89697,-19.5923,86.3647
56.083,-0.732876,-11.6781,-3.45362,-6.34766,-20.4468,88.0737
56.088,-0.713717,-11.8122,-3.60211,-5.43213,-21.8506,90.332
56.093,-1.31247,-11.8027,-3.71707,-4.63867,-24.292,94.5434
56.097,-1.45618,-11.5057,-3.76976,-4.3335,-27.71,96.4355
56.103,-1.20709,-11.4626,-3.7506,-4.45557,-31.4941,97.5342
56.107,-1.13524,-11.6254,-3.85119,-4.39453,-34.8511,99.8535
56.113,-1.24062,-11.817,-3.71228,-4.27246,-37.7808,102.966
56.118,-1.35079,-11.932,-3.60211,-3.90625,-40.4663,105.103
56.123,-1.47534,-11.8697,-3.42488,-3.60107,-43.1519,106.384
56.128,-1.36516,-12.1619,-3.41051,-3.17383,-47.4243,108.582
56.132,-0.986749,-12.6313,-3.33387,-1.83106,-51.2695,110.352
56.138,-0.804724,-13.0672,-3.21891,-0.061035,-53.4668,111.694
56.142,-0.699345,-13.484,-3.171,1.89209,-55.2978,113.647
56.148,-0.622709,-13.8959,-3.22849,3.479,-57.7393,116.089
56.152,-0.718504,-14.1785,-3.28597,4.69971,-62.0727,118.591
56.158,-0.459844,-14.4276,-3.34824,5.85938,-69.1528,120.972
56.163,-0.0383179,-14.7006,-3.44404,6.71387,-77.2705,123.23
56.167,0.124538,-15.1748,-3.42966,7.75146,-85.9375,126.526
56.173,0.632284,-15.6203,-3.34344,8.91113,-95.8862,130.127
56.177,1.40348,-16.1664,-3.2716,9.27734,-105.591,133.118
56.183,1.99266,-16.7268,-2.98419,10.5591,-114.746,136.536
56.187,2.39023,-17.3208,-2.67763,12.7563,-125.793,140.503
56.193,2.69679,-17.9004,-2.32316,15.9302,-138.855,144.104
56.197,3.03209,-18.5422,-1.82979,19.6533,-153.564,147.278
56.202,3.19975,-19.0117,-1.32205,22.9492,-169.434,150.146
56.208,3.09437,-19.1649,-0.646656,25.8179,-185.669,153.503
56.212,3.34824,-19.0212,-0.0143716,27.3437,-200.195,157.532
56.218,4.10028,-18.3842,0.0910074,26.001,-208.984,162.109
56.222,4.7613,-17.201,-0.325721,21.8506,-209.656,168.03
56.228,4.87147,-15.9077,-1.46096,14.4653,-200.684,175.598
56.232,4.82836,-15.5101,-2.90756,5.7373,-183.35,184.631
56.238,4.68944,-15.8167,-4.07153,-2.56348,-161.011,192.993
56.243,4.26793,-15.8598,-4.83315,-10.1929,-134.644,198.425
56.248,3.52547,-15.6059,-4.79483,-16.5405,-106.384,202.393
56.253,2.33754,-15.0886,-4.2296,-22.8271,-80.8716,204.956
56.257,0.13891,-14.212,-3.65001,-27.4658,-63.2935,204.895
56.263,-1.24062,-12.6984,-3.02731,-29.8462,-54.0161,198.853
56.267,-0.871785,-11.2374,-2.39502,-31.9214,-49.1943,187.683
56.273,-0.589179,-9.83395,-1.93997,-32.959,-46.7529,176.086
56.277,-0.809521,-9.17293,-1.84896,-33.2031,-46.9971,165.71
56.283,-1.28852,-9.29747,-2.10762,-30.2124,-50.2319,155.884
56.288,-1.04423,-9.6136,-2.46687,-23.1934,-59.5093,146.118
56.292,0.162866,-9.66151,-2.55309,-16.4185,-72.3877,135.925
56.298,1.38432,-9.34057,-2.5004,-15.2588,-85.083,127.197
56.302,2.0214,-8.80888,-2.50519,-19.4702,-91.4307,121.338
56.307,1.40827,-7.93231,-2.46208,-24.9023,-87.7075,116.15
56.312,0.134122,-6.33243,-1.7819,-27.6489,-77.5146,106.75
56.317,-2.17468,-4.45474,-1.61903,-29.6631,-66.3452,94.6045
56.322,-4.55532,-2.60099,-1.85375,-31.4331,-53.0395,81.2988
56.327,-4.35415,-2.51956,-1.79626,-36.7432,-52.063,68.2373
56.332,-3.68833,-4.45474,-2.62015,-44.7388,-60.3638,61.8286
56.336,-4.24397,-6.48093,-2.34233,-44.6167,-63.2324,53.4058
56.341,-4.92895,-3.80329,-1.61903,-21.1792,-70.9229,23.8647
56.346,-5.44149,-0.340093,-2.11241,-16.8457,-81.2378,-9.27734
56.351,-4.25356,-0.641868,-1.67651,-27.832,-89.1724,-33.9966
56.356,-1.80106,-1.72441,-0.88137,-27.3437,-91.7358,-56.5186
56.361,0.622709,-2.81175,-0.493374,-26.9165,-89.7217,-70.7397
56.366,2.23694,-3.69312,-0.110166,-27.2827,-84.5337,-79.7119
56.371,3.02251,-3.93741,0.354465,-27.1606,-76.416,-89.1113
56.375,3.16622,-3.71228,1.01549,-26.6724,-67.5049,-98.8159
56.38,2.9315,-3.45841,1.32205,-26.6724,-59.6924,-108.093
56.385,2.72553,-3.21891,1.38432,-27.3437,-52.2461,-117.554
56.39,2.63452,-3.08957,1.3939,-28.1982,-46.0205,-127.563
56.395,2.60099,-3.04168,1.45138,-29.1748,-41.9922,-137.268
56.4,2.50998,-3.03688,1.37474,-29.9072,-38.8794,-146.179
56.405,2.3567,-3.13269,1.16398,-31.189,-34.1187,-154.48
56.41,2.19863,-3.38656,1.14961,-32.1655,-27.71,-162.476
56.415,2.05493,-3.61169,1.18793,-31.9824,-21.7285,-170.288
56.419,1.88728,-3.76018,1.02985,-30.7617,-16.6626,-178.894
56.424,1.77231,-3.9422,0.790352,-30.0293,-12.6953,-188.354
56.429,1.46096,-4.22003,0.593966,-29.9683,-12.3291,-197.998
56.434,1.1065,-4.48827,0.411942,-28.6865,-14.2822,-206.543
56.439,0.986749,-4.83315,0.210758,-27.2217,-15.2588,-213.379
56.444,0.775991,-5.1445,-0.0383179,-26.3672,-16.2964,-219.299
56.449,0.632284,-5.24031,-0.0526895,-24.4141,-19.2261,-227.417
56.454,0.536489,-5.28341,-0.0143716,-22.3999,-22.3389,-237.671
56.458,0.541277,-5.37922,-0.00958437,-21.3623,-25.6958,-247.742
56.463,0.589179,-5.5804,-0.0143716,-20.5078,-29.1748,-257.141
56.468,0.479003,-5.92528,-0.0958045,-20.1416,-33.3862,-265.32
56.473,0.426313,-6.30369,-0.244289,-20.0195,-38.3301,-272.583
56.478,0.440685,-6.64378,-0.378411,-19.8975,-42.7246,-279.602
56.483,0.48379,-7.08926,-0.541277,-20.1416,-46.4477,-286.377
56.488,0.411942,-7.5012,-0.517321,-20.3247,-49.1333,-292.847
56.493,0.229927,-7.76944,-0.593966,-21.0571,-50.8423,-299.255
56.498,0.201183,-8.09516,-0.675399,-22.2168,-53.894,-305.481
56.503,0.306563,-8.49274,-0.689771,-23.2544,-57.373,-310.791
56.507,0.215555,-8.91426,-0.517321,-24.292,-58.0444,-315.369
56.513,0.57001,-9.34537,-0.57001,-26.4893,-59.1431,-320.557
56.517,1.35079,-9.99202,-0.761619,-28.5645,-60.1807,-326.355
56.523,1.63819,-10.495,-0.593966,-29.4189,-59.3872,-332.825
56.527,1.28852,-10.9069,-0.392783,-30.3345,-60.3638,-339.661
56.533,1.07297,-11.4051,-0.268245,-31.311,-62.6831,-343.872
56.538,0.953218,-12.0661,-0.335306,-33.2031,-63.9038,-345.886
56.542,0.732876,-12.8038,-0.474215,-35.4004,-65.4297,-347.351
56.548,0.608338,-13.7378,-0.407154,-34.79,-72.3267,-348.877
56.552,0.627497,-14.3845,-0.105379,-32.5317,-80.2612,-350.281
56.558,0.493374,-14.8156,0.0814328,-33.1421,-83.4961,-353.21
56.562,0.359252,-15.4479,-0.210758,-36.0107,-86.1816,-356.323
56.568,0.296978,-16.0083,-0.704132,-39.917,-88.8672,-357.422
56.572,0.110166,-16.5927,-1.23104,-44.7388,-91.0034,-358.154
56.577,-0.316147,-17.4405,-1.80106,-50.1709,-92.7734,-358.704
56.583,-1.19751,-18.3411,-2.39981,-55.0537,-92.8345,-357.605
56.587,-2.66806,-19.0883,-2.75906,-59.5093,-90.9424,-355.469
56.593,-4.71819,-19.5961,-2.9794,-64.3921,-88.8672,-353.394
56.597,-6.48571,-19.9697,-3.22369,-69.519,-89.4165,-351.685
56.603,-7.52037,-20.2523,-3.6548,-75.0122,-89.5996,-349.853
56.607,-8.39694,-20.5397,-3.85119,-80.1392,-86.853,-346.985
56.613,-9.04838,-20.7792,-3.7985,-82.9468,-84.1675,-343.14
56.618,-9.38369,-20.9229,-3.32429,-83.0688,-84.0454,-338.379
56.623,-9.45554,-21.0474,-2.47166,-82.0923,-86.1816,-331.421
56.628,-9.31663,-21.0522,-1.28852,-81.0547,-89.5996,-321.228
56.632,-9.53697,-20.8223,-0.39757,-80.3833,-93.2617,-308.044
56.638,-10.107,-20.3864,0.479003,-79.1626,-95.7031,-293.152
56.642,-11.0027,-19.6248,1.18314,-76.416,-97.4121,-277.222
56.648,-12.1236,-18.6476,1.50887,-72.4487,-96.3135,-260.498
56.652,-13.3929,-17.9291,1.35559,-66.8945,-94.1772,-242.126
56.658,-14.9018,-17.8716,0.977164,-59.9365,-92.2241,-221.069
56.663,-16.8514,-18.2357,0.622709,-52.4902,-91.98,-197.937
56.667,-19.1218,-18.571,0.680186,-45.105,-96.0083,-173.523
56.673,-21.2869,-18.4848,1.33642,-37.1094,-105.041,-149.109
56.677,-22.7144,-18.001,2.18905,-28.0151,-118.164,-124.634
56.683,-22.2976,-16.9903,2.74948,-18.9819,-129.7,-98.4497
56.687,-20.6834,-15.079,2.38065,-12.6953,-128.967,-70.2515
56.693,-19.1458,-13.8145,1.89206,-7.62939,-115.906,-41.1987
56.697,-17.9339,-13.5989,1.26936,-1.77002,-99.5483,-11.1084
56.702,-17.0094,-13.9678,0.474215,4.15039,-83.374,19.4702
56.707,-16.4682,-14.5521,0.0191589,10.1929,-68.1152,47.9736
56.712,-15.2898,-18.456,-2.77822,9.70459,-59.3872,74.3408
56.717,-11.1943,-20.5445,-3.15663,3.35693,-62.8662,102.417
56.722,-5.22593,-15.9125,1.81543,12.8784,-55.4199,117.981
56.727,-0.665815,-12.6792,1.36516,14.5874,-29.8462,127.502
56.732,4.74693,-9.43638,-3.71228,7.20215,0.976562,122.925
56.736,12.4589,-7.44851,-6.16957,-2.62451,17.8833,95.0317
56.741,21.9384,-10.0447,-2.59141,-7.38525,16.4795,72.3267
56.746,27.6385,-11.0027,3.05125,-1.0376,8.17871,65.2466
56.751,27.6816,-8.78493,7.7934,10.437,22.0337,72.1436
56.756,23.5191,-7.06531,9.99202,16.4795,65.6128,82.5195
56.761,14.0204,-7.47246,9.69983,14.5874,115.723,82.8247
56.766,5.75763,-10.0591,8.02331,9.94873,144.409,81.4819
56.77,2.56267,-13.6085,6.11688,5.49316,148.621,89.5996
56.775,1.734,-16.6741,4.13859,1.46484,145.813,105.286
56.78,-0.550851,-17.9147,2.55309,-2.38037,145.508,121.399
56.785,-3.05604,-17.4214,0.74246,-5.98144,136.23,133.789
56.79,-4.58885,-16.1185,-1.13524,-9.64355,117.31,137.634
56.795,-5.91091,-15.1222,-2.44771,-14.3433,99.3652,134.888
56.8,-5.92528,-14.2552,-2.75906,-17.395,85.8765,130.31
56.805,-4.54096,-13.4313,-2.55788,-18.6157,78.7354,125.488
56.809,-2.72074,-12.0853,-1.99266,-18.7988,72.3877,120.483
56.814,-0.823883,-10.6818,-1.66215,-19.4092,64.1479,118.408
56.819,1.11129,-9.22082,-2.09804,-20.0195,54.5654,116.699
56.824,2.42855,-7.56826,-3.18059,-21.7895,48.2788,112.915
56.829,2.6441,-6.39949,-4.426,-23.9258,47.3022,108.826
56.834,1.79147,-5.99713,-5.66662,-25.2686,50.1709,106.445
56.839,0.469428,-6.15041,-6.37554,-25.1465,53.5278,105.896
56.844,-0.507746,-7.13716,-6.10251,-22.3389,55.2978,104.553
56.848,-1.74357,-8.24844,-5.30257,-17.2729,52.9175,101.257
56.853,-2.47166,-8.6604,-4.94332,-11.9629,44.4946,97.6562
56.858,-2.6441,-9.1346,-4.77566,-7.75146,32.8979,92.5293
56.863,-2.00224,-9.5705,-4.46432,-4.21143,19.9585,87.0972
56.868,-1.21188,-9.6184,-4.08112,-1.52588,8.72803,84.1064
56.873,-0.713717,-9.65672,-3.76018,0.610352,0.915527,82.3975
56.878,-0.25866,-9.45075,-3.67396,0.976562,-2.99072,81.1767
56.883,0.186812,-9.12024,-3.74102,-0.183105,-1.95312,80.5054
56.888,0.383208,-8.95737,-3.7506,-2.19727,3.23486,79.5898
56.892,-0.134122,-9.17772,-3.59253,-3.479,10.0708,78.6133
56.898,-0.934059,-9.8579,-3.13269,-2.86865,11.5356,76.5381
56.902,-1.53281,-10.4902,-2.62015,-0.854492,5.18799,73.2422
56.908,-1.47534,-10.4998,-2.2609,0.183105,-4.15039,69.7021
56.913,-1.15919,-10.1022,-2.13157,-0.488281,-12.0239,66.04
56.917,-1.03465,-9.72378,-2.05013,-1.40381,-17.5781,63.5986
56.923,-0.771194,-9.79563,-1.94954,-2.31934,-20.6909,62.561
56.927,-0.296978,-9.93934,-1.87291,-3.11279,-21.9116,60.791
56.933,0.158069,-9.82916,-2.12678,-3.84522,-22.0337,58.3496
56.937,0.162866,-9.71899,-2.37586,-4.45557,-21.6675,55.603
56.943,-0.162866,-9.44596,-2.5004,-4.82178,-22.4609,53.4058
56.947,-0.239501,-9.23999,-2.72074,-5.43213,-23.5596,52.2461
56.952,-0.0383179,-9.24956,-3.02731,-5.92041,-23.6816,50.8423
56.958,0.234714,-9.1394,-3.15663,-6.04248,-22.9492,49.0112
56.962,0.292191,-8.92863,-3.40093,-6.22558,-21.9116,47.2412
56.968,0.0191589,-8.73703,-3.7027,-5.7373,-21.4233,46.1426
56.972,-0.287404,-8.86637,-3.84162,-4.15039,-22.8271,45.8374
56.978,-0.4311,-9.1346,-3.74102,-2.13623,-25.6958,44.6167
56.982,-0.0718484,-9.0915,-3.68833,-0.732422,-28.9307,42.2363
56.987,0.340093,-8.82325,-3.65001,0,-30.7007,39.3677
56.993,0.273032,-8.59812,-3.66438,0.366211,-29.7852,36.1328
56.998,-0.196396,-8.71309,-3.71707,0.610352,-27.8931,33.5693
57.003,-0.617912,-8.8999,-3.52547,1.46484,-26.9775,32.1045
57.007,-0.819096,-9.01485,-3.40093,2.13623,-26.5503,30.4565
57.013,-0.74246,-9.05797,-3.33866,2.44141,-26.6724,28.6865
57.017,-0.526905,-9.06275,-3.14706,2.2583,-27.5879,27.0386
57.023,-0.546064,-8.97175,-2.92193,1.95312,-28.8696,25.6348
57.027,-0.598753,-8.94779,-2.83091,1.70898,-30.8838,24.9634
57.033,-0.469428,-9.12024,-2.76865,1.46484,-32.5928,24.9634
57.038,-0.153281,-9.26394,-2.73032,1.28174,-33.7524,25.1465
57.042,0.0574768,-9.28788,-2.81654,0.976562,-34.9731,25.0854
57.048,0.244289,-9.16334,-2.98419,0.549316,-36.7432,25.2075
57.052,0.273032,-9.08671,-3.10394,0.366211,-38.0249,25.3906
57.058,0.158069,-9.10107,-3.15185,0.244141,-39.1846,25.6958
57.062,0.0910074,-9.12503,-3.15185,0.183105,-38.8184,26.2451
57.068,0.0814328,-9.12981,-3.24765,0.061035,-37.4146,26.4282
57.072,0.143697,-9.19688,-3.39613,0.12207,-35.2783,26.3061
57.077,0.364039,-9.19688,-3.54463,0.305176,-33.2642,26.6113
57.083,0.507746,-9.1394,-3.66438,0.244141,-30.5786,26.7944
57.087,0.244289,-9.14419,-3.70749,0.854492,-28.8086,26.9775
57.092,-0.0479022,-9.1394,-3.57816,1.46484,-28.3813,27.2217
57.097,-0.13891,-9.22562,-3.46799,1.89209,-27.71,27.771
57.102,-0.17244,-9.23999,-3.53026,1.83106,-26.4282,27.4658
57.107,-0.320934,-9.06275,-3.58774,1.77002,-25.8179,26.7944
57.112,-0.306563,-9.02443,-3.39135,1.52588,-26.4282,26.6113
57.117,-0.287404,-9.11065,-3.15663,1.0376,-27.0386,27.2217
57.122,-0.263448,-8.97175,-3.05125,0.793457,-26.5503,27.8931
57.127,-0.316147,-9.02922,-3.00335,0.671387,-25.1465,28.6255
57.131,-0.282616,-9.20166,-3.02731,0.732422,-23.7427,29.541
57.136,-0.263448,-9.32621,-3.07041,0.366211,-22.522,30.0903
57.141,-0.253873,-9.38369,-3.1231,-0.244141,-22.2168,30.7007
57.146,-0.25866,-9.40285,-3.17579,-0.427246,-22.583,31.6772
57.151,-0.301775,-9.21603,-3.15185,-0.671387,-22.4609,32.2876
57.156,-0.268245,-9.1825,-3.16143,-0.976562,-21.5454,33.02
57.161,-0.301775,-9.30704,-3.13269,-1.58691,-20.9961,34.1187
57.166,-0.402367,-9.19209,-3.27638,-2.44141,-20.5078,35.2783
57.17,-0.493374,-8.98132,-3.43446,-3.11279,-20.2637,35.2783
57.175,-0.661027,-9.14419,-3.30991,-3.17383,-20.5688,35.7666
57.18,-0.82868,-9.03881,-3.32907,-3.66211,-21.3013,36.6821
57.185,-0.838255,-8.92863,-3.44883,-4.76074,-22.1558,36.9873
57.19,-0.699345,-8.90947,-3.34824,-5.92041,-23.3154,37.3535
57.195,-0.613125,-9.0915,-3.32429,-7.01904,-23.9868,37.9028
57.2,-0.637071,-8.88073,-2.99378,-7.75146,-24.0479,38.8794
57.204,-0.661027,-8.97653,-3.00815,-8.78906,-23.5596,39.6729
57.209,-0.74246,-9.10107,-2.92672,-9.58252,-23.0713,41.0156
57.214,-0.555648,-9.29268,-2.91234,-10.2539,-22.3389,42.4805
57.219,-0.584382,-9.35974,-3.04168,-11.4136,-21.6064,44.0063
57.224,-0.780778,-9.58966,-2.98899,-12.085,-20.9351,45.3491
57.229,-1.03465,-9.30704,-2.98419,-12.2681,-20.5688,46.936
57.234,-0.972377,-9.11544,-3.1279,-13.1836,-20.0806,47.0581
57.239,-0.96759,-9.26872,-3.21412,-14.2822,-19.2871,48.584
57.243,-0.948431,-9.12981,-3.15663,-14.5874,-18.2495,49.9268
57.248,-0.895741,-9.55613,-3.171,-14.9536,-17.7002,51.2085
57.253,-1.13045,-9.81,-3.15185,-14.8315,-17.1509,53.5278
57.258,-1.19272,-9.82916,-3.20453,-14.3433,-16.4795,54.3823
57.263,-1.19272,-9.92496,-3.29555,-14.0381,-16.1743,54.9927
57.268,-1.27415,-10.1022,-3.32429,-13.6719,-16.3574,56.2134
57.273,-1.27894,-10.2124,-3.39135,-13.4277,-17.0898,57.5561
57.278,-1.43222,-10.0687,-3.47757,-13.2446,-17.6392,59.3262
57.283,-1.28373,-9.93934,-3.62606,-13.0615,-17.9443,60.1196
57.288,-1.28852,-10.2794,-3.82724,-12.4512,-18.3716,61.5234
57.292,-1.33163,-10.2363,-4.01406,-11.4746,-19.6533,63.0493
57.298,-1.18314,-10.3513,-4.13859,-11.0474,-21.7285,64.4531
57.302,-1.1065,-10.3082,-4.26793,-10.6812,-24.0479,66.5894
57.308,-0.766406,-10.1693,-4.33499,-10.2539,-25.7568,68.3594
57.312,-0.536489,-10.4279,-4.24397,-10.0708,-26.7944,70.6787
57.318,-0.766406,-10.4758,-4.15297,-9.33838,-27.832,74.0356
57.322,-0.958005,-10.5381,-4.01884,-8.36182,-28.9307,76.416
57.327,-0.977164,-10.9883,-3.9901,-7.62939,-30.7007,79.1626
57.333,-0.9149,-11.2949,-3.9949,-7.44629,-32.5317,82.8857
57.337,-0.732876,-11.4674,-4.00926,-7.26318,-33.3862,85.5102
57.343,-0.79515,-11.7691,-4.07632,-6.83594,-34.4849,88.0737
57.347,-1.00591,-11.9751,-3.96615,-6.40869,-36.2549,90.8813
57.353,-1.15919,-12.2529,-3.89431,-6.28662,-38.8184,93.75
57.357,-1.31726,-12.5259,-3.74581,-5.98144,-42.1143,96.4966
57.362,-1.3029,-12.7415,-3.559,-5.18799,-46.2646,99.1211
57.368,-1.13524,-13.0145,-3.35303,-4.21143,-49.9878,101.624
57.372,-1.03944,-13.3786,-3.16143,-2.92969,-53.2227,104.492
57.378,-0.871785,-13.642,-2.85965,-1.40381,-55.542,107.178
57.382,-0.771194,-13.9342,-2.66806,0.366211,-57.8003,110.107
57.388,-0.747247,-14.2552,-2.49082,2.07519,-60.3027,113.159
57.392,-0.780778,-14.5138,-2.31359,3.66211,-63.4766,115.967
57.398,-0.579594,-14.7198,-2.11241,5.00488,-67.627,118.835
57.402,-0.373624,-15.0024,-2.03577,5.67627,-72.2656,121.643
57.408,-0.229927,-15.4287,-1.76274,6.5918,-77.6978,124.329
57.413,0.124538,-16.0897,-1.50887,7.50732,-84.8389,127.502
57.417,0.613125,-16.7795,-1.44659,9.46045,-92.8955,130.432
57.423,0.88137,-17.4884,-1.36995,12.3291,-101.929,133.118
57.427,1.15919,-18.2405,-1.346,16.0522,-113.525,135.803
57.433,1.52323,-18.8488,-1.1065,20.0806,-128.174,138.062
57.437,1.6334,-18.9829,-0.771194,23.3154,-145.813,139.954
57.443,1.90644,-19.0117,-0.507746,25.9399,-164.795,141.968
57.447,2.68243,-18.935,-0.440685,27.71,-183.533,144.958
57.452,3.72665,-18.3411,-0.622709,27.4048,-198.853,148.743
57.458,4.83315,-17.2825,-1.22625,23.2544,-205.505,152.649
57.462,5.90612,-16.0035,-2.39981,15.9912,-202.881,158.875
57.468,6.0115,-15.0311,-3.72186,7.38525,-191.833,168.396
57.472,5.26904,-14.236,-5.23551,-3.41797,-169.922,179.81
57.478,4.70382,-14.7485,-6.46176,-13.7329,-140.381,191.223
57.482,3.78892,-15.97,-6.81144,-20.1416,-109.741,199.158
57.487,1.81543,-16.176,-6.62941,-25.3906,-84.2285,202.698
57.492,0.0143716,-15.5054,-6.17436,-29.6631,-66.6504,203.43
57.497,-0.689771,-14.5521,-5.58519,-33.1421,-57.9224,201.538
57.502,-0.958005,-13.4504,-5.13971,-36.8652,-53.2227,195.801
57.507,-1.14961,-12.1044,-4.35894,-38.8794,-49.8657,188.171
57.512,-1.01549,-10.9548,-3.73623,-40.3442,-47.7905,179.871
57.517,-1.31726,-10.1884,-3.06084,-38.269,-47.9736,171.082
57.521,-1.42743,-9.91059,-2.78301,-33.2031,-52.7344,162.415
57.526,-0.814308,-10.1022,-2.74469,-25.0854,-62.439,153.015
57.531,-0.00478728,-10.1213,-2.68243,-17.5171,-75.3784,141.846
57.536,0.785565,-9.74294,-2.49561,-14.4043,-91.6138,129.517
57.541,1.825,-9.23519,-2.01182,-16.7847,-109.924,118.835
57.546,1.87769,-8.31072,-1.48012,-21.6064,-123.84,111.389
57.551,0.775991,-6.91203,-1.23583,-26.1841,-127.441,104.126
57.556,-0.804724,-5.31215,-1.35559,-30.9448,-122.986,95.3369
57.561,-2.81175,-3.84162,-1.71962,-35.9497,-112.305,86.6699
57.565,-4.10985,-2.83091,-2.26569,-41.3818,-98.8769,77.2705
57.57,-3.30034,-2.51956,-2.49082,-46.2646,-91.4917,66.1621
57.575,-2.6489,-3.42966,-2.31359,-50.2319,-91.8579,55.2978
57.58,-4.43078,-4.20087,-1.94475,-47.3022,-91.4307,42.8467
57.585,-6.06898,-2.89797,-1.13524,-36.6211,-94.9097,18.4937
57.59,-6.4474,-1.5424,-1.38912,-36.9263,-105.286,-8.05664
57.595,-5.37443,-2.11719,-1.2502,-44.6777,-114.197,-26.001
57.6,-3.40572,-2.5962,-0.785565,-42.2974,-121.765,-46.3867
57.604,-0.972377,-2.6441,-0.354465,-38.208,-125.122,-66.8945
57.609,1.01549,-2.66806,0.387995,-38.269,-124.084,-80.8716
57.614,2.02619,-2.79738,1.14003,-39.1846,-119.141,-90.21
57.619,2.18905,-3.03209,1.734,-40.0391,-111.267,-98.8769
57.624,2.10282,-3.171,2.00224,-41.2598,-102.478,-107.849
57.629,2.17468,-3.26681,2.22258,-42.1753,-92.2851,-117.187
57.634,2.52435,-3.34344,2.46687,-42.2974,-81.1157,-127.38
57.638,2.85007,-3.30513,2.5004,-42.2363,-71.106,-137.939
57.643,2.97462,-3.39135,2.38544,-43.7012,-63.4766,-147.156
57.648,2.96982,-3.61648,2.32796,-45.8984,-56.5796,-154.358
57.653,2.90276,-3.87993,2.29443,-47.2412,-48.7061,-160.583
57.658,2.7399,-4.11943,2.22737,-48.3398,-39.917,-167.786
57.663,2.39981,-4.31582,2.15552,-48.8892,-31.7993,-176.208
57.668,2.16988,-4.44037,2.04056,-49.0112,-26.001,-185.303
57.673,2.09804,-4.69903,1.80584,-48.7671,-24.292,-194.214
57.677,2.10282,-5.0487,1.56156,-47.9736,-24.4141,-202.026
57.683,2.04535,-5.41753,1.25499,-46.3257,-22.4609,-209.595
57.687,1.7819,-5.772,1.16877,-44.5557,-19.043,-217.712
57.693,1.2981,-6.03545,1.15919,-42.4805,-18.4326,-225.83
57.697,0.862211,-6.1073,1.04423,-40.0391,-22.583,-234.192
57.702,0.507746,-6.07377,0.910103,-37.2925,-28.8696,-243.408
57.708,0.301775,-6.13125,0.74246,-34.729,-35.8887,-252.502
57.712,0.201183,-6.17436,0.589179,-32.3486,-43.396,-261.23
57.718,0.253873,-6.24621,0.464631,-30.3345,-51.2695,-269.348
57.722,0.416729,-6.34681,0.320934,-28.6865,-58.1055,-276.733
57.728,0.684973,-6.60068,0.205971,-27.9541,-63.4155,-283.447
57.732,0.958005,-6.84497,0.210758,-27.5269,-67.0776,-289.612
57.737,1.01549,-7.06531,0.13891,-27.771,-70.6787,-296.387
57.743,1.02507,-7.59221,0.0287433,-28.3203,-76.9043,-302.856
57.747,1.2502,-8.14307,-0.0814328,-28.7476,-82.6416,-307.983
57.753,1.47534,-8.54064,0.0143716,-29.2969,-85.9375,-312.988
57.757,1.45138,-8.92384,0.0574768,-30.6396,-89.4165,-319.397
57.763,1.33642,-9.47469,-0.00478728,-32.3486,-93.9331,-326.05
57.767,1.23104,-10.1213,-0.0287433,-33.7524,-98.6938,-331.97
57.773,1.10171,-10.6962,-0.00958437,-35.0342,-102.417,-337.28
57.777,1.02507,-11.2758,0.105379,-36.7432,-104.187,-341.675
57.783,0.871785,-11.7069,0.105379,-39.2456,-105.347,-345.093
57.788,0.713717,-12.3631,0.148494,-41.9922,-108.948,-347.168
57.792,0.684973,-13.072,0.39757,-41.0767,-116.089,-348.328
57.798,0.809521,-13.4504,0.823883,-38.5742,-119.934,-349.915
57.802,0.910103,-13.8959,0.919687,-39.2456,-118.591,-353.271
57.808,1.29331,-14.6958,0.890944,-40.9546,-116.455,-356.079
57.812,1.85853,-15.3473,0.680186,-43.7622,-113.22,-356.873
57.818,1.75315,-16.0514,-0.124538,-50.1709,-107.971,-357.788
57.822,1.02507,-17.0142,-1.31726,-57.4951,-104.126,-357.239
57.827,0.306563,-17.9722,-2.04056,-62.8662,-101.196,-354.675
57.833,-0.943634,-18.8919,-2.15552,-66.8945,-96.6797,-352.295
57.837,-2.90756,-19.5769,-2.28485,-71.5942,-91.6138,-351.257
57.843,-4.69903,-19.7877,-2.24653,-76.5381,-88.3789,-350.464
57.847,-6.06898,-19.8787,-2.03097,-81.7261,-87.0972,-349.06
57.853,-6.95035,-20.281,-1.93997,-85.9375,-87.3413,-347.717
57.857,-7.5539,-20.6594,-1.90165,-87.8906,-86.9751,-345.154
57.862,-8.09516,-20.7457,-1.65256,-88.3789,-84.1675,-341.309
57.868,-8.29635,-20.9612,-1.33642,-88.7451,-81.2988,-335.571
57.872,-8.12391,-21.4019,-0.512533,-88.1348,-80.1392,-326.599
57.878,-7.87962,-21.5648,0.598753,-87.2803,-78.7354,-315.002
57.882,-8.20055,-21.2295,1.59509,-85.9985,-73.1201,-301.819
57.887,-8.74182,-20.4966,2.44292,-83.1909,-63.9648,-287.476
57.892,-9.43638,-19.8212,2.8884,-78.4912,-52.063,-272.156
57.897,-10.3704,-19.4667,2.62973,-71.9604,-38.6963,-254.517
57.902,-11.6542,-19.5386,1.95434,-64.4531,-26.1841,-233.52
57.907,-13.575,-19.7158,0.958005,-57.1899,-16.2964,-210.571
57.912,-16.1951,-19.6535,0.158069,-50.9033,-11.1694,-187.744
57.916,-18.9686,-19.2272,-0.119751,-45.3491,-14.2822,-164.978
57.921,-21.0378,-18.3938,0.0910074,-39.978,-24.7803,-141.296
57.926,-21.9288,-17.0094,0.502959,-34.668,-37.5977,-115.417
57.931,-21.3875,-15.4239,0.977164,-30.3345,-46.4477,-86.9751
57.936,-20.1182,-14.1402,1.13524,-26.4893,-46.875,-56.8848
57.941,-19.2416,-13.4217,1.17356,-21.7285,-38.8184,-26.062
57.946,-18.1255,-13.4744,0.981961,-16.1743,-27.6489,4.94385
57.951,-16.9328,-13.8097,0.632284,-10.0098,-15.9912,35.4004
57.955,-15.3042,-17.5747,-0.905316,-7.08008,-7.08008,64.4531
57.96,-12.5259,-20.8798,-2.82612,-13.855,-5.5542,98.1445
57.965,-8.91906,-15.8886,1.76274,-8.72803,8.05664,121.399
57.97,-5.26904,-12.9044,2.96025,-4.69971,35.4614,138.733
57.975,-0.823883,-10.6531,-0.354465,-4.82178,68.2983,150.085
57.98,4.91458,-8.05206,-4.2344,-8.60596,90.0268,132.874
57.985,14.418,-9.49865,-5.63309,-15.686,85.2051,101.868
57.99,23.5335,-11.6494,-2.46687,-16.2354,63.5986,76.7212
57.995,25.6507,-10.2124,1.85853,-9.82666,45.3491,64.6362
57.999,21.3396,-7.70238,4.81878,-2.01416,47.5464,69.458
58.004,13.4696,-6.4905,5.80074,3.41797,71.0449,81.1767
58.009,4.99601,-7.08447,5.39359,3.84522,102.844,89.0503
58.014,-0.684973,-9.16334,4.87147,2.56348,125,96.3135
58.019,-1.20709,-12.3152,4.26793,1.83106,128.662,102.905
58.024,0.526905,-15.3281,3.46799,1.58691,118.835,108.032
58.029,1.7771,-17.0813,3.04168,2.2583,101.135,111.511
58.034,0.929272,-16.7987,2.79738,2.19727,82.9468,116.028
58.038,-1.31726,-16.2813,2.24653,-1.15967,64.8193,121.643
58.043,-3.06563,-15.0934,1.46575,-6.95801,52.9785,126.953
58.048,-3.78892,-13.8432,0.464631,-12.2681,46.7529,128.113
58.053,-3.63564,-13.1439,-0.512533,-14.8315,40.9546,124.39
58.058,-2.42376,-12.1667,-1.51844,-15.5029,33.8745,119.019
58.063,-0.689771,-10.8399,-2.68721,-16.2964,28.0762,114.258
58.068,0.780778,-9.49865,-3.7506,-17.4561,25.3296,110.718
58.072,1.62382,-8.56938,-4.28709,-18.7988,26.1841,109.192
58.077,2.0214,-8.34904,-4.8571,-20.813,32.0435,110.168
58.083,1.89685,-8.15265,-5.24988,-22.0337,43.2129,111.877
58.088,1.18793,-8.15744,-5.67141,-22.583,53.5889,111.694
58.093,1.12566,-8.26282,-5.7241,-22.644,61.4624,110.718
58.097,0.804724,-8.48795,-5.26904,-21.4233,67.9321,108.276
58.103,-0.292191,-8.27719,-4.79004,-18.4326,69.8853,104.309
58.107,-1.45618,-8.32988,-4.50743,-15.2588,65.7959,101.135
58.113,-1.70047,-8.53106,-4.26313,-12.207,55.7861,97.7783
58.118,-1.67651,-9.14897,-3.91346,-7.99561,43.5791,94.0552
58.123,-2.16031,-9.96807,-3.65959,-3.23486,30.3955,91.8579
58.128,-2.20341,-10.016,-3.79371,-0.244141,18.1274,89.9658
58.132,-1.65256,-9.92496,-4.04279,0.12207,10.498,88.4399
58.138,-1.00591,-10.1549,-3.87515,0.549316,4.27246,88.0127
58.142,-0.536489,-10.2172,-3.57337,1.64795,-1.52588,86.9751
58.148,-0.512533,-9.84353,-3.33866,2.19727,-4.39453,83.5571
58.152,-1.03944,-9.41243,-3.01772,2.38037,-7.01904,79.6509
58.158,-1.37474,-9.25915,-2.66806,2.80762,-12.207,75.9277
58.163,-1.43701,-9.331,-2.31838,2.86865,-17.0288,71.9604
58.167,-1.40348,-9.39327,-1.97828,2.2583,-18.7988,68.6646
58.173,-1.46575,-9.68546,-1.66215,1.28174,-19.043,66.4673
58.177,-1.10171,-9.92975,-1.50887,-0.12207,-19.8975,64.3311
58.183,-0.555648,-9.85311,-1.42743,-1.70898,-20.874,61.5234
58.187,0.100592,-9.5226,-1.5855,-4.02832,-21.6675,58.5327
58.193,0.48379,-9.36932,-1.80584,-6.46973,-21.3623,56.6406
58.197,0.502959,-9.18729,-2.05972,-8.78906,-19.4092,55.7251
58.202,0.502959,-9.15376,-2.27048,-10.376,-17.2729,55.4199
58.208,0.579594,-9.28788,-2.44292,-11.7187,-15.564,55.2978
58.212,0.536489,-9.33578,-2.81654,-12.7563,-14.2212,54.0771
58.218,0.411942,-9.1346,-3.20932,-12.6343,-13.6108,52.3682
58.222,0.402367,-8.95259,-3.3195,-12.0239,-13.3667,50.9644
58.228,0.459844,-8.88073,-3.35303,-11.3525,-12.6953,49.8657
58.232,0.335306,-8.8472,-3.56379,-10.0098,-11.4136,48.4009
58.237,-0.0766455,-8.77056,-3.82724,-8.42285,-10.6812,46.9971
58.243,-0.354465,-8.85199,-3.87515,-6.40869,-11.5356,45.5933
58.248,-0.373624,-8.88553,-3.83203,-4.39453,-12.6953,43.8232
58.253,-0.287404,-8.92384,-3.76018,-2.31934,-14.3433,42.5415
58.257,-0.378411,-9.04838,-3.59253,-0.305176,-16.7236,41.1987
58.263,-0.445472,-8.8999,-3.35782,1.34277,-20.3247,39.6729
58.267,-0.632284,-8.93343,-3.13747,2.44141,-24.7803,39.0015
58.273,-0.680186,-9.00528,-2.90276,2.80762,-29.8462,38.5742
58.277,-0.627497,-9.07234,-2.72553,3.23486,-34.3018,37.9639
58.282,-0.574807,-9.21603,-2.56267,3.35693,-37.4756,37.7197
58.287,-0.411942,-9.35974,-2.56746,3.2959,-39.6118,37.4756
58.292,-0.0862201,-9.47949,-2.62973,2.92969,-40.6494,37.2925
58.297,0.177227,-9.46512,-2.67763,2.07519,-40.0391,36.9873
58.302,0.239501,-9.45075,-2.6441,1.15967,-38.6353,36.5601
58.307,0.277819,-9.39806,-2.62494,0.305176,-37.0483,36.6211
58.312,0.378411,-9.35974,-2.79259,-0.366211,-34.729,37.2314
58.316,0.48379,-9.3741,-3.02251,-0.915527,-31.4331,37.6587
58.321,0.493374,-9.30704,-3.19016,-1.09863,-27.0996,37.8418
58.326,0.493374,-9.19209,-3.40572,-1.09863,-23.2544,38.0249
58.331,0.34488,-9.12981,-3.44883,-0.732422,-19.9585,38.6353
58.336,0.0383179,-9.03401,-3.38177,-0.305176,-16.8457,39.0625
58.341,-0.191599,-9.04359,-3.35303,0.183105,-14.5874,39.1235
58.346,-0.25866,-9.11544,-3.35782,0.793457,-12.8784,39.3066
58.35,-0.268245,-9.17293,-3.40572,1.28174,-11.9019,39.3066
58.355,-0.34488,-9.21125,-3.3674,1.52588,-10.8643,39.0015
58.36,-0.479003,-9.25435,-3.25722,1.83106,-10.6201,38.4521
58.365,-0.613125,-9.21603,-3.11353,2.2583,-11.4136,38.0859
58.37,-0.608338,-9.20166,-3.01294,2.13623,-12.2681,38.269
58.375,-0.661027,-9.22562,-2.85487,1.83106,-13.1836,38.269
58.38,-0.766406,-9.21125,-2.79738,1.28174,-13.6719,38.3301
58.385,-0.871785,-9.20166,-2.62494,0.488281,-13.4888,38.208
58.389,-0.857414,-9.28788,-2.46687,-0.427246,-13.3667,38.208
58.394,-0.895741,-9.23999,-2.38544,-1.40381,-12.6953,38.4521
58.399,-0.953218,-9.01965,-2.39023,-2.56348,-11.7798,38.6353
58.404,-0.943634,-8.92384,-2.40939,-3.60107,-10.6201,38.6353
58.409,-0.752035,-9.10107,-2.57225,-4.39453,-9.21631,38.5132
58.414,-0.627497,-9.23999,-2.79738,-4.82178,-7.69043,39.1235
58.419,-0.694558,-9.27831,-3.08,-5.18799,-6.22558,39.3066
58.424,-0.74246,-9.12981,-3.26202,-5.31006,-5.31006,39.1235
58.429,-0.900529,-8.9909,-3.34344,-5.49316,-4.88281,38.8184
58.433,-0.996333,-9.14897,-3.32907,-5.79834,-5.85938,38.4521
58.438,-1.14003,-9.23999,-3.16622,-6.28662,-6.71387,38.6353
58.443,-1.32684,-9.12503,-2.99856,-7.01904,-6.71387,38.3301
58.448,-1.29331,-9.16334,-2.85007,-7.50732,-6.7749,37.6587
58.453,-1.43222,-9.15856,-2.78301,-7.87354,-6.46973,37.2925
58.458,-1.54718,-9.23519,-2.83091,-8.30078,-6.53076,37.2314
58.463,-1.52803,-9.38847,-2.89318,-8.66699,-7.44629,36.8652
58.468,-1.70525,-9.40285,-2.94109,-8.48389,-9.33838,36.438
58.472,-1.59509,-9.22082,-2.81654,-8.8501,-11.2915,36.3159
58.478,-1.32205,-9.32621,-2.65368,-9.46045,-12.9395,36.9263
58.482,-1.15919,-9.54176,-2.61537,-10.1929,-14.0381,37.8418
58.488,-1.03944,-9.80521,-2.90756,-10.8643,-15.1978,39.0015
58.493,-1.07776,-9.59924,-3.20453,-11.9629,-15.9302,40.7104
58.498,-0.938846,-9.33578,-3.39135,-13.0005,-16.6016,41.5039
58.503,-0.852626,-9.48428,-3.15185,-12.7563,-17.0898,43.457
58.507,-1.02985,-9.79563,-3.03209,-11.7798,-17.0288,46.1426
58.513,-1.08734,-9.97765,-3.14227,-10.8032,-16.4795,49.0723
58.517,-1.03944,-9.83874,-3.28597,-9.76562,-15.7471,51.3306
58.523,-0.929272,-9.85311,-3.37697,-8.60596,-15.3198,53.5278
58.527,-0.737663,-9.50822,-3.4153,-7.44629,-15.0146,56.1523
58.533,-0.392783,-9.92496,-3.47757,-6.65283,-14.1602,58.2886
58.538,-0.512533,-10.5381,-3.52547,-5.49316,-13.3057,62.5
58.542,-1.00591,-10.313,-3.47757,-4.45557,-12.3291,66.4062
58.548,-1.00591,-10.1645,-3.52547,-4.15039,-12.207,67.749
58.552,-0.843052,-10.4423,-3.6069,-3.78418,-12.4512,69.7632
58.558,-0.651443,-10.9931,-3.87035,-3.78418,-12.5122,73.0591
58.562,-0.641868,-11.1081,-4.01884,-2.56348,-12.9395,76.416
58.568,-0.479003,-11.2805,-4.04759,-1.15967,-13.3667,78.7964
58.572,-0.507746,-11.7643,-4.0859,-0.244141,-14.1602,82.1533
58.577,-0.862211,-11.9943,-3.97573,0.671387,-16.1743,86.6089
58.583,-0.996333,-11.6877,-3.80329,1.70898,-18.3716,89.3555
58.587,-0.886157,-12.0613,-3.7985,2.50244,-21.3013,92.041
58.593,-1.00112,-12.2817,-3.87515,3.479,-24.1699,96.0083
58.597,-1.04423,-12.4924,-3.81766,4.63867,-27.2827,98.8769
58.603,-1.15919,-12.9044,-3.71228,5.06592,-30.8838,101.562
58.607,-1.30768,-12.9523,-3.5111,5.43213,-34.79,104.309
58.612,-1.2502,-13.0289,-3.26202,5.49316,-38.3301,106.079
58.618,-1.28852,-13.2684,-2.98419,5.7373,-41.5039,108.887
58.623,-1.19751,-13.3882,-2.71595,6.46973,-44.6777,111.877
58.628,-1.00112,-13.484,-2.42855,7.38525,-47.3022,114.136
58.632,-0.972377,-13.8145,-2.12678,8.48389,-49.1333,116.516
58.638,-0.871785,-14.2168,-2.03577,10.2539,-50.7812,119.507
58.642,-0.814308,-14.624,-1.94475,12.2681,-52.4292,122.009
58.648,-0.718504,-14.9545,-1.99744,13.916,-54.3213,124.573
58.652,-0.708929,-15.1748,-2.05972,15.686,-57.9834,127.38
58.658,-0.488587,-15.1653,-2.23216,17.2729,-63.1103,129.639
58.663,-0.143697,-15.3712,-2.38544,18.4326,-68.9087,131.653
58.667,0.263448,-15.5964,-2.32796,19.2261,-75.5615,133.972
58.672,0.728088,-15.855,-2.3088,20.0806,-82.7026,136.414
58.677,1.21188,-16.2766,-2.32316,21.2402,-90.21,139.404
58.682,1.76753,-16.7029,-2.23694,22.8882,-98.5107,143.127
58.687,2.34712,-17.1819,-2.03097,24.1089,-107.788,146.912
58.692,2.67763,-17.5507,-1.61903,25.8789,-117.737,150.269
58.697,2.86923,-17.9531,-1.18793,28.5034,-128.967,153.442
58.702,3.01294,-18.456,-0.775991,31.8604,-141.357,156.799
58.707,3.25244,-18.8919,-0.445472,34.668,-154.053,160.522
58.711,3.47278,-18.7482,-0.416729,35.3394,-164.734,164.612
58.716,3.94699,-17.9243,-0.819096,33.2031,-171.387,168.701
58.721,4.49306,-16.7364,-1.76274,27.6489,-169.678,174.255
58.726,4.95769,-15.8646,-3.32907,19.3481,-157.898,182.434
58.731,5.10618,-15.7736,-4.70382,10.6201,-137.512,192.566
58.736,4.42121,-16.0227,-5.60913,3.11279,-112.305,201.172
58.741,3.27638,-16.1424,-5.86301,-2.50244,-86.7309,206.36
58.746,1.70525,-15.7736,-5.4319,-6.34766,-65.6738,207.703
58.75,0.249086,-14.8348,-4.8092,-9.82666,-50.2319,206.177
58.755,-0.814308,-13.5319,-4.49785,-14.1602,-40.4663,202.332
58.76,-0.752035,-12.3296,-4.25834,-18.0054,-32.8369,195.862
58.765,-0.292191,-11.3428,-3.99968,-19.8364,-24.353,187.866
58.77,-0.134122,-10.7536,-3.95178,-19.165,-13.7939,177.063
58.775,-1.60466,-10.3944,-3.58774,-16.4795,-5.5542,164.307
58.78,-3.81766,-9.80521,-3.01294,-14.8315,-8.60596,152.283
58.784,-4.07632,-9.18729,-3.15185,-15.0146,-26.001,142.151
58.789,-3.04168,-8.74662,-3.53505,-18.3716,-40.4663,134.338
58.794,-3.31471,-8.4161,-3.5111,-24.5361,-45.5933,128.174
58.799,-4.6655,-7.76944,-3.85119,-31.0059,-46.3867,120.911
58.804,-6.39949,-5.8151,-4.97206,-35.2173,-44.4336,108.582
58.809,-6.46176,-2.96982,-5.26425,-38.4521,-44.9829,89.0503
58.814,-2.85007,-3.47757,-4.63676,-43.2129,-65.5518,68.7256
58.819,0.325721,-6.0594,-2.0166,-40.1611,-85.5713,52.8564
58.823,-1.11129,-4.92895,-2.79738,-25.6348,-96.6797,25.9399
58.828,-2.46687,-0.814308,-6.16478,-22.1558,-120.666,-11.7798
58.833,1.2981,-0.383208,-5.36484,-33.5083,-145.935,-29.7852
58.838,5.42712,-2.4525,-2.77343,-34.4238,-151.855,-32.2876
58.843,6.35638,-2.66326,-1.3939,-29.1748,-149.963,-44.3726
58.848,6.57672,-2.30401,-0.301775,-27.832,-153.381,-63.0493
58.853,7.10363,-2.29443,0.775991,-27.0996,-161.011,-80.0781
58.858,7.31439,-2.14594,1.76274,-25.0854,-167.236,-91.6748
58.863,6.6869,-1.67172,2.33754,-23.0713,-169.189,-100.22
58.868,5.58997,-1.39869,2.45729,-22.8271,-168.091,-109.314
58.873,4.79483,-1.74357,2.62494,-24.353,-164.917,-119.812
58.878,4.04759,-2.38544,2.90756,-25.9399,-162.109,-130.92
58.882,3.35303,-2.96982,3.06084,-27.3437,-160.095,-141.235
58.888,2.93629,-3.26202,2.97462,-29.1748,-156.189,-150.085
58.892,2.75428,-3.42009,2.72074,-32.2876,-148.804,-157.715
58.898,2.74469,-3.559,2.60099,-36.1938,-138.062,-165.1
58.902,2.9315,-3.71707,2.53872,-39.7949,-126.709,-172.913
58.908,3.11831,-3.88951,2.46687,-42.7246,-114.502,-181.274
58.913,3.2716,-4.16254,2.46208,-44.9219,-101.074,-189.758
58.917,3.21412,-4.51222,2.52435,-46.6919,-88.4399,-198.608
58.923,2.9794,-4.86189,2.62494,-47.7905,-77.8809,-207.642
58.927,2.74469,-5.19719,2.60578,-49.1943,-69.519,-215.942
58.933,2.62494,-5.52291,2.58184,-50.5371,-62.5,-223.45
58.937,2.60578,-5.80074,2.44292,-51.6357,-56.8237,-230.652
58.943,2.44292,-6.04503,2.27048,-52.9785,-52.3071,-237.305
58.947,2.30401,-6.2031,1.93997,-54.5654,-47.7295,-243.774
58.952,2.08846,-6.38991,1.51365,-55.9692,-43.7622,-250.671
58.958,1.86812,-6.64857,1.26936,-57.0679,-41.3818,-257.751
58.962,1.67172,-6.81622,0.934059,-58.3496,-40.3442,-264.771
58.968,1.46096,-6.9743,0.455056,-60.1807,-39.0625,-271.24
58.972,1.25978,-7.18985,0.105379,-62.3169,-37.0483,-278.137
58.978,1.01549,-7.53473,-0.114963,-64.0259,-35.5225,-285.645
58.982,0.780778,-7.985,-0.316147,-65.1855,-36.2549,-293.762
58.987,0.871785,-8.5598,-0.479003,-65.918,-39.4897,-301.758
58.993,1.08734,-9.1346,-0.57001,-66.3452,-42.2363,-308.716
58.998,1.18793,-9.82916,-0.728088,-66.6504,-44.1284,-315.125
59.003,1.27415,-10.4806,-0.694558,-66.6504,-46.3867,-321.106
59.007,1.30768,-11.1943,-0.526905,-66.7725,-49.7436,-326.477
59.013,1.42265,-11.908,-0.340093,-66.7725,-54.2602,-330.383
59.017,1.56156,-12.5738,-0.0574768,-66.8335,-57.0068,-332.458
59.023,1.33163,-13.1534,0.426313,-67.2607,-55.7861,-333.496
59.027,0.838255,-13.5558,1.0586,-68.4814,-53.5889,-335.266
59.033,0.632284,-13.8049,1.5424,-69.7021,-53.5889,-337.524
59.038,0.843052,-14.1737,1.67651,-71.6553,-54.5654,-339.294
59.042,1.19751,-14.9162,1.48012,-73.6694,-54.9316,-340.393
59.048,1.27894,-15.9987,1.21188,-75.5615,-52.3682,-341.248
59.052,0.766406,-17.043,0.790352,-77.3315,-45.7153,-342.59
59.058,-0.550851,-17.8668,0.383208,-78.6133,-38.6353,-344.238
59.062,-2.20821,-18.5087,0,-79.4678,-36.5601,-345.886
59.067,-3.33387,-18.9302,-0.598753,-80.6274,-37.9028,-347.656
59.072,-3.95178,-19.1649,-1.09213,-83.2519,-35.6445,-348.694
59.077,-4.4691,-19.4188,-1.66215,-87.0972,-27.2217,-348.45
59.082,-5.04391,-19.9409,-2.33275,-90.7593,-15.8691,-346.924
59.087,-5.60913,-20.6211,-2.75428,-92.6514,-5.31006,-345.398
59.092,-6.24621,-21.354,-3.05125,-92.4683,2.44141,-344.543
59.097,-6.8306,-21.9911,-2.98899,-91.1255,5.79834,-342.224
59.101,-7.36708,-22.3503,-2.53393,-89.4775,4.39453,-336.914
59.106,-7.80297,-22.2976,-1.98307,-88.3789,0.793457,-329.407
59.111,-8.44005,-21.8186,-1.26457,-87.5854,-3.11279,-319.763
59.116,-9.34057,-20.9995,-0.775991,-86.4258,-6.10351,-309.265
59.121,-10.0782,-20.5014,-0.364039,-84.4116,-7.14111,-296.997
59.126,-11.1608,-20.214,-0.205971,-80.5054,-8.30078,-280.029
59.131,-12.5307,-19.8787,-0.507746,-74.707,-9.52148,-260.01
59.136,-14.1306,-19.802,-0.651443,-68.5425,-10.8032,-238.159
59.141,-16.0083,-19.7877,-0.843052,-63.8428,-13.5498,-214.966
59.145,-18.2117,-19.5577,-0.843052,-59.6924,-19.7754,-190.674
59.15,-20.4535,-19.0835,-0.565223,-55.481,-29.7852,-164.978
59.155,-22.4365,-18.4656,0.301775,-50.2319,-42.7856,-138.123
59.16,-23.6005,-18.0537,1.88249,-42.9077,-57.7393,-110.229
59.165,-23.3802,-17.0669,2.89797,-33.1421,-71.7773,-80.8105
59.17,-22.2449,-14.8635,2.90756,-24.5361,-73.0591,-50.293
59.175,-20.5157,-13.6085,2.15072,-18.0664,-61.4624,-19.4092
59.18,-18.9159,-13.6995,1.0586,-11.6577,-43.5791,12.5122
59.184,-17.6465,-14.4084,0.0958045,-5.61523,-24.1699,43.0298
59.189,-15.8694,-20.4678,-3.8464,-8.60596,-11.5356,74.1577
59.194,-13.0768,-18.7434,-1.36995,-7.56836,-5.67627,105.835
59.199,-10.0351,-14.2743,2.18905,1.28174,11.4136,126.16
59.204,-5.60435,-12.6888,0.790352,3.17383,38.5742,145.447
59.209,3.73144,-9.70941,-3.3195,-0.12207,64.4531,142.761
59.214,15.6778,-9.3789,-4.60802,-6.53076,70.4346,111.389
59.218,23.7682,-12.0326,-0.0814328,-8.23975,55.9082,78.2471
59.223,25.8423,-11.75,5.18762,0.305176,34.4849,69.5801
59.228,22.5659,-8.33466,8.16702,10.1929,35.4004,83.1909
59.233,14.5186,-6.27016,8.71787,13.3667,62.9272,94.4824
59.238,5.69057,-7.58263,7.99937,9.15527,97.7783,95.8252
59.243,1.0586,-10.7776,7.15153,4.82178,121.765,101.135
59.248,-0.273032,-14.0396,6.1073,1.89209,134.216,112.488
59.253,-0.857414,-16.2478,4.44516,-1.83106,133.85,125.305
59.257,-1.41785,-17.2633,2.51477,-6.46973,121.094,135.315
59.263,-2.02619,-16.9567,0.79515,-11.8408,103.455,139.893
59.267,-2.52915,-15.5101,-0.661027,-18.4937,89.8437,141.235
59.273,-2.96982,-13.5271,-1.14482,-23.4375,83.7402,139.893
59.277,-3.63564,-12.3583,-1.29331,-23.6816,79.3457,136.23
59.283,-4.09548,-11.6063,-1.71484,-23.1934,73.8525,130.798
59.288,-3.39135,-11.0794,-1.85375,-22.8271,63.8428,126.404
59.292,-1.48012,-10.3225,-2.20821,-23.0103,52.8564,123.108
59.298,0.39757,-9.25435,-3.18538,-24.5972,45.3491,119.202
59.302,1.44181,-8.42088,-4.28709,-27.0996,43.5791,114.319
59.308,1.20709,-8.01853,-5.13013,-28.5034,45.8984,110.168
59.312,0.488587,-8.26282,-5.49897,-28.3203,48.7061,107.422
59.318,-0.0479022,-8.49753,-5.48459,-26.7334,51.5137,106.262
59.322,-0.277819,-8.61728,-5.49897,-25.1465,53.1616,105.469
59.327,-0.694558,-8.30593,-5.93007,-23.9868,53.4668,103.76
59.333,-0.502959,-8.28677,-5.71452,-22.3389,51.8188,101.074
59.337,-0.895741,-8.93343,-4.59844,-18.4937,47.5464,98.8159
59.343,-2.15072,-9.56571,-3.35782,-13.2446,38.6353,97.0459
59.347,-2.54351,-9.96328,-2.87881,-9.33838,26.5503,94.7876
59.353,-2.31838,-10.1213,-2.9315,-7.62939,14.7095,93.689
59.357,-1.44181,-9.80042,-3.34824,-7.08008,3.72314,91.0034
59.362,-0.613125,-9.5705,-3.76976,-7.38525,-3.11279,86.4868
59.368,-0.411942,-9.71899,-3.86077,-7.44629,-6.5918,83.9233
59.373,-0.536489,-9.82916,-3.76018,-6.34766,-7.8125,82.8247
59.378,-0.699345,-9.74773,-3.40572,-5.49316,-7.56836,80.5054
59.382,-0.962802,-9.70462,-2.86444,-4.08936,-7.56836,76.9653
59.388,-1.43701,-9.73336,-2.32796,-2.68555,-10.0708,73.6694
59.392,-1.95434,-9.81479,-1.89206,-2.01416,-15.0757,70.9839
59.398,-1.5376,-10.1261,-1.50887,-1.64795,-21.8506,68.4814
59.402,-0.498162,-10.1166,-1.36037,-2.31934,-26.2451,66.1011
59.408,0.426313,-9.59444,-1.61903,-4.88281,-25.5737,63.5986
59.413,0.555648,-9.23999,-1.82979,-7.62939,-21.8506,60.4858
59.417,-0.0383179,-9.25435,-1.74357,-9.09424,-18.8599,58.2275
59.423,-0.402367,-9.50344,-1.61425,-10.0098,-18.4326,57.6172
59.427,-0.182025,-9.66151,-1.62862,-11.4136,-18.5547,57.1289
59.433,0.25866,-9.6136,-1.93038,-13.4888,-17.2119,55.7251
59.437,0.39757,-9.4268,-2.3567,-15.1367,-14.6484,54.0771
59.443,0.354465,-9.30225,-2.74469,-15.4419,-12.5732,52.7344
59.447,0.186812,-9.14419,-2.98419,-15.0146,-11.1694,51.8799
59.452,0.0958045,-8.98132,-3.19016,-14.1602,-10.1929,50.415
59.458,-0.0335306,-8.8472,-3.44883,-12.8784,-9.76562,48.7671
59.462,-0.186812,-8.87594,-3.63085,-11.4746,-9.46045,47.3022
59.467,-0.249086,-8.93343,-3.60211,-9.64355,-9.94873,45.7764
59.472,-0.205971,-8.95259,-3.53505,-8.05664,-10.8032,44.3115
59.477,-0.239501,-8.97175,-3.51588,-6.71387,-11.6577,42.6636
59.482,-0.25866,-9.01965,-3.46799,-5.12695,-13.4888,40.5884
59.487,-0.296978,-9.10107,-3.31471,-3.66211,-16.9067,38.5742
59.492,-0.287404,-9.02443,-3.14706,-2.56348,-19.8975,36.9873
59.496,-0.507746,-9.08191,-2.89797,-2.01416,-22.2778,35.8276
59.501,-0.708929,-9.1394,-2.60099,-1.34277,-25.2686,34.668
59.506,-0.752035,-9.30704,-2.57704,-1.2207,-27.8931,33.9966
59.511,-0.728088,-9.36932,-2.65368,-1.09863,-29.9072,33.0811
59.516,-0.536489,-9.3789,-2.692,-1.0376,-31.8604,32.2876
59.521,-0.373624,-9.34057,-2.66806,-1.09863,-32.959,31.7383
59.526,-0.205971,-9.33578,-2.76385,-1.52588,-33.1421,31.311
59.531,-0.0958045,-9.41243,-2.8884,-1.58691,-33.2642,30.9448
59.535,-0.0670612,-9.33578,-2.98899,-1.64795,-33.6304,30.0293
59.54,-0.0766455,-9.25435,-2.98899,-2.2583,-32.7148,29.1748
59.545,-0.100592,-9.15376,-2.89797,-2.92969,-29.7852,28.5645
59.55,0.0526895,-9.09628,-2.79259,-3.60107,-25.5737,28.1982
59.555,0.0670612,-9.12503,-2.85965,-4.27246,-20.1416,27.8931
59.56,0.0574768,-9.10107,-3.02251,-4.63867,-15.8691,27.2827
59.565,-0.0718484,-9.07712,-3.10874,-5.00488,-12.4512,27.2217
59.57,-0.148494,-9.04838,-3.10394,-4.94385,-10.3149,27.2217
59.575,-0.153281,-9.03881,-3.15185,-4.69971,-8.8501,27.0996
59.579,-0.220342,-9.04359,-3.04647,-4.27246,-7.69043,27.2827
59.584,-0.158069,-9.16813,-3.06084,-3.90625,-7.62939,27.832
59.589,-0.13891,-9.23999,-3.11353,-3.60107,-7.99561,28.7476
59.594,-0.0287433,-9.23999,-3.16143,-3.479,-8.72803,29.3579
59.599,0.167653,-9.22082,-3.1231,-3.78418,-8.36182,30.4565
59.604,0.205971,-9.15376,-3.1231,-4.45557,-6.53076,31.3721
59.609,0.296978,-9.05797,-3.09437,-5.00488,-4.57764,32.1655
59.614,0.110166,-8.99569,-3.15185,-5.24902,-2.56348,32.4097
59.618,-0.263448,-9.10107,-3.02731,-5.06592,-1.46484,32.7759
59.623,-0.57001,-9.19209,-2.84528,-5.12695,-0.488281,33.3862
59.628,-0.910103,-9.1346,-2.71595,-5.00488,-0.12207,33.6914
59.633,-1.03944,-9.35974,-2.75428,-4.94385,-1.2207,33.4473
59.638,-0.962802,-9.46032,-2.87403,-4.82178,-2.68555,33.5083
59.643,-0.871785,-9.29747,-2.98419,-4.5166,-4.3335,33.2642
59.648,-0.814308,-9.2831,-2.99856,-4.08936,-5.37109,33.1421
59.652,-0.819096,-9.21125,-3.03209,-3.54004,-5.37109,33.0811
59.658,-0.713717,-9.12024,-3.09437,-3.54004,-4.94385,33.02
59.663,-0.752035,-9.1346,-3.15185,-3.35693,-4.15039,33.1421
59.667,-0.756822,-9.1825,-3.16622,-3.23486,-3.90625,33.0811
59.673,-0.919687,-9.23041,-3.171,-3.2959,-3.84522,33.2642
59.677,-0.981961,-9.24956,-3.17579,-3.23486,-4.63867,33.4473
59.683,-0.9149,-9.22082,-3.1231,-3.05176,-6.10351,33.6304
59.687,-0.814308,-9.30225,-3.02251,-3.479,-7.14111,34.4849
59.693,-0.680186,-9.47949,-2.85487,-3.78418,-8.36182,35.7666
59.697,-0.713717,-9.33578,-2.74948,-4.27246,-9.21631,37.3535
59.702,-0.4311,-9.32141,-2.69679,-5.00488,-9.15527,39.1846
59.708,-0.292191,-9.58487,-2.70159,-5.24902,-8.48389,41.687
59.712,-0.498162,-9.52738,-2.85487,-5.12695,-8.11768,44.6167
59.718,-0.541277,-9.4268,-3.08957,-5.00488,-7.93457,46.6919
59.722,-0.373624,-9.43638,-3.30034,-5.06592,-8.36182,48.584
59.728,-0.234714,-9.29268,-3.44883,-5.06592,-8.54492,51.3916
59.732,-0.320934,-9.34057,-3.63564,-4.88281,-8.54492,53.7109
59.738,-0.555648,-9.46512,-3.83203,-4.88281,-9.27734,56.5796
59.743,-0.661027,-9.74294,-3.77455,-4.45557,-10.7422,59.5703
59.748,-0.632284,-9.7621,-3.78892,-4.27246,-12.3291,61.8896
59.753,-0.737663,-9.7621,-3.92784,-4.27246,-13.7939,64.209
59.757,-0.775991,-9.88185,-3.62606,-3.84522,-15.5029,67.0776
59.763,-0.680186,-10.0064,-3.37219,-3.17383,-16.1133,69.6411
59.767,-0.934059,-10.3848,-3.40093,-2.74658,-16.5405,72.8149
59.773,-0.948431,-10.5716,-3.13269,-1.46484,-17.0288,75.5615
59.777,-0.799937,-10.8734,-2.82134,0,-17.0898,78.6133
59.783,-0.670602,-11.247,-2.48603,0.915527,-16.5405,82.0312
59.788,-0.766406,-11.4147,-2.45729,1.95312,-15.4419,85.5102
59.792,-0.886157,-11.5057,-2.58184,2.99072,-14.5874,88.6841
59.798,-0.895741,-11.7356,-2.77343,3.2959,-14.2212,91.7969
59.802,-0.761619,-11.8506,-3.01772,3.90625,-14.6484,95.2759
59.808,-0.732876,-12.0996,-3.25722,4.45557,-15.9302,98.2056
59.812,-0.919687,-12.5068,-3.48715,5.18799,-18.2495,101.624
59.818,-1.12087,-12.7367,-3.56858,6.34766,-21.2402,104.858
59.822,-1.14961,-12.8613,-3.66438,7.44629,-24.8413,107.544
59.827,-1.09213,-13.1103,-3.71228,7.99561,-28.8696,110.107
59.833,-0.958005,-13.3307,-3.64043,8.48389,-33.3252,112.488
59.837,-0.943634,-13.4025,-3.44883,9.09424,-37.4756,115.173
59.843,-0.843052,-13.6708,-3.26202,10.0098,-41.1987,118.042
59.847,-0.785565,-14.0827,-3.03209,11.0474,-44.3726,121.094
59.853,-0.819096,-14.3989,-2.86444,12.3901,-47.2412,124.207
59.857,-0.986749,-14.7102,-2.75428,13.6719,-51.3916,127.258
59.862,-0.526905,-14.806,-2.74948,14.8926,-56.6406,130.188
59.867,-0.0335306,-14.9928,-2.80218,15.5029,-60.6079,132.69
59.872,0.110166,-15.3617,-2.81175,15.9912,-63.8428,135.803
59.877,0.186812,-15.6155,-2.79738,16.7236,-67.9932,139.038
59.882,0.440685,-15.8023,-2.80218,17.334,-73.3643,142.273
59.887,0.9149,-15.9748,-2.89318,18.1274,-79.1626,145.508
59.892,1.41306,-16.2191,-3.16622,19.5923,-84.4116,148.376
59.896,1.62382,-16.5352,-3.47757,20.5688,-88.4399,151.489
59.901,1.825,-16.8466,-3.61169,21.7285,-93.1396,155.151
59.906,2.16988,-17.0382,-3.87035,22.2168,-99.6094,157.959
59.911,2.36628,-17.0909,-3.96137,23.0103,-108.52,159.912
59.916,2.6441,-17.1196,-4.06675,23.7427,-119.08,161.377
59.921,2.85007,-17.2154,-3.81287,23.9258,-132.812,162.231
59.926,2.51956,-17.4884,-3.85119,23.6816,-142.639,165.039
59.93,2.50519,-17.6226,-3.62127,24.6582,-152.161,167.48
59.935,2.213,-17.6752,-3.56858,24.1699,-161.499,171.02
59.94,1.72921,-17.7519,-3.70749,22.8271,-167.541,176.636
59.945,2.17468,-17.8477,-3.59253,21.0571,-167.603,182.922
59.95,3.29555,-17.7231,-3.77455,17.1509,-163.025,188.293
59.955,4.33499,-17.4166,-4.01406,12.7563,-155.701,191.406
59.96,4.49306,-16.6262,-4.16254,8.42285,-146.057,193.603
59.965,4.25834,-15.4,-4.35415,3.479,-135.559,194.763
59.969,3.61648,-14.0636,-4.26793,-0.915527,-123.413,195.557
59.974,2.4525,-12.9523,-4.038,-4.45557,-111.389,195.984
59.979,1.41785,-12.0805,-3.60211,-7.26318,-100.708,193.603
59.984,0.651443,-11.0937,-3.24765,-10.2539,-92.4072,188.171
59.989,0.536489,-10.1501,-2.96025,-13.6719,-85.6323,179.81
59.994,0.603541,-9.31184,-2.91713,-17.5171,-78.7964,168.762
59.999,0.785565,-8.81846,-2.9315,-20.6909,-73.8525,154.297
60.004,0.996333,-8.64602,-2.80696,-21.3013,-70.0684,138.367
60.009,1.30768,-8.55501,-2.47166,-19.3481,-69.5801,124.329
60.013,1.9735,-8.15744,-2.00703,-16.1743,-74.2188,114.929
60.018,2.51477,-7.56826,-1.21667,-15.1367,-80.7495,109.924
60.023,1.02507,-6.23184,-1.39869,-16.3574,-79.1016,107.788
60.028,-1.38432,-4.10985,-1.3029,-20.9351,-71.6553,100.037
60.033,-3.74102,-2.4525,-1.15919,-28.4424,-70.2515,83.1299
60.038,-3.85119,-2.80696,-1.46096,-37.0483,-71.4111,68.1763
60.043,-2.70159,-3.92304,-0.277819,-38.6353,-78.3081,55.7861
60.048,-2.41897,-5.47981,0.943634,-34.3628,-90.3931,46.936
60.052,-2.68721,-4.08112,1.38432,-16.6626,-96.6186,25.6348
60.058,-3.42966,-0.565223,0.387995,-13.3667,-93.2007,-9.15527
60.062,-1.32205,-1.39869,-0.263448,-28.6255,-79.4678,-22.2778
60.068,2.28485,-2.42855,-0.0622739,-31.7383,-57.7393,-29.4189
60.072,4.56012,-3.01772,-0.0718484,-35.2783,-38.8184,-45.8374
60.077,5.91091,-3.77455,0.502959,-37.8418,-20.752,-63.2935
60.083,6.23663,-3.78413,1.2981,-34.1797,-3.05176,-78.0029
60.087,5.46065,-3.07041,1.45138,-31.189,10.376,-90.8203
60.093,4.60802,-2.62494,1.35079,-32.2266,18.7378,-101.807
60.097,3.91346,-2.5962,1.346,-36.0107,23.1934,-111.023
60.103,3.2716,-2.94587,1.4897,-39.7339,27.2217,-119.446
60.107,2.67763,-3.45362,1.93038,-40.9546,30.7007,-128.784
60.113,2.12678,-3.76976,2.05493,-39.7949,31.189,-138.306
60.118,1.76753,-3.97094,1.88249,-38.208,29.8462,-147.766
60.123,1.46575,-4.12422,1.71484,-36.6821,28.9307,-156.982
60.128,1.08734,-4.31582,1.47534,-35.1562,28.6255,-166.26
60.132,0.651443,-4.56491,1.26936,-33.9966,28.4424,-175.842
60.138,0.316147,-4.83315,1.15919,-32.6538,25.3906,-185.791
60.142,0.119751,-5.03434,0.866998,-31.0059,18.7988,-195.496
60.148,0.0958045,-5.16845,0.574807,-29.3579,10.7422,-205.139
60.152,0.215555,-5.31694,0.479003,-27.1606,3.41797,-215.332
60.158,0.292191,-5.49418,0.392783,-25.3906,-3.11279,-225.769
60.163,0.407154,-5.62829,0.330509,-24.5361,-8.54492,-235.596
60.167,0.598753,-5.772,0.340093,-23.6206,-12.6343,-245.239
60.173,0.694558,-5.97797,0.421526,-22.4609,-16.6016,-254.456
60.177,0.675399,-6.13604,0.502959,-21.0571,-21.7285,-263.55
60.183,0.752035,-6.38991,0.407154,-19.9585,-28.5645,-271.851
60.187,0.977164,-6.75396,0.39757,-18.3716,-36.438,-279.541
60.193,0.953218,-7.08926,0.435898,-17.334,-43.0298,-286.865
60.197,0.82868,-7.48204,0.39757,-16.8457,-51.0254,-294.312
60.202,0.799937,-7.86046,0.416729,-16.4185,-60.0586,-301.086
60.208,0.775991,-8.11432,0.522118,-16.6016,-68.1763,-307.129
60.212,0.689771,-8.33466,0.4311,-18.1274,-74.8291,-314.148
60.218,0.637071,-8.70829,0.320934,-19.7754,-81.2378,-321.289
60.222,0.704132,-9.10587,0.39757,-21.2402,-87.4023,-327.332
60.228,0.756822,-9.53697,0.531692,-23.0103,-93.1396,-332.764
60.232,0.833467,-10.0495,0.541277,-25.1465,-98.2056,-338.135
60.238,1.11608,-10.6051,0.708929,-27.4048,-101.257,-343.384
60.243,1.50887,-11.247,1.1065,-28.9307,-102.173,-347.534
60.248,1.56634,-11.9847,1.37474,-31.1279,-100.952,-350.586
60.252,1.09691,-13.0433,1.57113,-34.4238,-98.5718,-353.882
60.257,0.747247,-14.1833,2.00224,-34.9121,-99.3042,-358.459
60.262,0.330509,-15.2515,2.16988,-35.2783,-100.83,-362.061
60.267,0.110166,-15.97,2.23216,-37.4756,-99.7314,-363.892
60.272,-0.0335306,-16.3053,2.10282,-41.5039,-93.0786,-364.868
60.277,-0.402367,-16.5065,1.51365,-47.6074,-81.1767,-364.929
60.282,-0.948431,-17.0142,0.895741,-53.7109,-64.8193,-364.563
60.287,-1.93997,-17.91,0.263448,-59.082,-45.8984,-364.014
60.291,-3.23328,-18.9542,-0.479003,-62.9883,-26.123,-363.159
60.296,-4.64634,-19.9361,-1.14482,-65.3687,-7.26318,-361.328
60.301,-5.84385,-20.9277,-1.56634,-66.6504,7.99561,-359.131
60.306,-6.48093,-21.833,-1.7771,-67.0776,19.6533,-356.873
60.311,-6.57193,-22.6138,-1.55197,-67.0166,29.2358,-351.868
60.316,-6.57672,-23.2413,-1.04423,-67.1387,39.1235,-342.529
60.321,-6.94556,-23.5239,-0.79515,-67.688,50.5981,-330.261
60.326,-7.81734,-23.2221,-0.790352,-69.3359,62.9883,-315.979
60.33,-8.8999,-22.8293,-0.752035,-71.5332,76.1108,-300.171
60.335,-10.3321,-22.4365,-0.593966,-73.3643,88.8061,-283.02
60.34,-12.2242,-21.8857,-0.598753,-73.9746,99.2432,-265.198
60.345,-14.418,-21.4019,-0.732876,-71.7163,104.614,-247.681
60.35,-16.449,-20.9564,-1.14003,-67.1387,103.699,-228.577
60.355,-18.1734,-20.6642,-1.5424,-61.5845,97.7783,-205.872
60.36,-19.8164,-20.4008,-1.91122,-56.7017,89.5996,-178.711
60.364,-21.6558,-19.8308,-2.09804,-53.0395,80.2612,-148.865
60.369,-23.3227,-18.8632,-2.02619,-49.8047,68.9697,-119.019
60.374,-24.3861,-17.6273,-1.85375,-46.0205,56.8848,-90.5762
60.379,-24.6208,-16.4538,-1.52323,-41.1987,46.0815,-63.8428
60.384,-24.228,-17.0046,-1.61903,-37.4756,35.4614,-35.0342
60.389,-24.7932,-15.5533,-1.05381,-30.5176,25.1465,-2.80762
60.394,-24.3717,-13.8193,-0.905316,-21.3013,16.4185,26.8555
60.399,-23.0401,-13.3355,-1.07297,-12.3901,13.2446,55.542
60.403,-21.9288,-13.551,-1.56634,-4.15039,14.4043,83.8013
60.408,-21.148,-14.0923,-2.51956,2.07519,14.4043,110.535
60.413,-16.7412,-14.0827,-4.45474,5.79834,8.91113,131.47
60.418,-0.843052,-13.9917,-6.98388,7.32422,-5.7373,133.179
60.423,18.8009,-13.9055,-7.97541,8.97217,-24.231,104.492
60.428,29.8467,-12.6218,-6.74438,10.6201,-47.3633,62.561
60.433,32.2322,-9.81,-0.991536,13.916,-69.5801,41.687
60.438,23.1886,-5.01038,3.74581,21.0571,-79.1626,50.9644
60.443,7.81734,-2.69679,5.17803,25.7568,-63.2935,72.1436
60.447,-0.4311,-5.71452,5.13013,23.5596,-39.7339,83.4961
60.452,-2.15072,-10.792,4.96727,20.0806,-26.4282,90.21
60.458,-0.335306,-15.3473,3.62127,14.4653,-13.3667,99.8535
60.462,1.12087,-17.4022,1.1544,6.22558,0.976562,111.938
60.468,2.20821,-16.4682,-0.162866,-0.976562,1.77002,123.474
60.472,2.75906,-14.0157,-0.129335,-7.26318,-2.13623,126.587
60.478,0.728088,-12.5643,-0.129335,-14.2212,0.793457,124.329
60.482,-2.32796,-12.8948,1.44659,-18.0664,9.33838,124.756
60.488,-5.36963,-13.5654,2.79259,-17.5171,11.9019,122.498
60.493,-6.54319,-11.8793,2.33754,-15.8691,4.21143,116.333
60.498,-5.06787,-10.6674,-0.416729,-17.0288,-6.95801,107.666
60.503,-3.19016,-10.5237,-4.53616,-21.1792,-17.1509,99.1211
60.507,-1.62382,-9.8579,-9.00048,-25.9399,-26.7944,92.5293
60.513,-0.292191,-10.1932,-8.13828,-27.0996,-22.2778,87.4634
60.517,-2.86444,-11.7069,-5.12056,-23.6816,-6.22558,88.8061
60.523,-4.39247,-11.4386,-4.82836,-23.2544,14.0381,96.1914
60.527,-1.66215,-8.98612,-5.78637,-26.1841,26.4282,94.1162
60.533,0.843052,-7.99937,-5.90612,-26.6724,20.3857,83.6792
60.538,0.584382,-8.29156,-4.75172,-20.5688,-1.2207,74.5239
60.542,-0.13891,-8.29156,-3.57816,-12.085,-25.2686,73.0591
60.548,0.411942,-8.06643,-3.9901,-8.60596,-38.5742,74.0356
60.552,2.33754,-8.15265,-4.73256,-10.9863,-36.0718,73.0591
60.558,4.7613,-8.07122,-4.44994,-16.4795,-18.4937,71.4111
60.562,5.37922,-7.70238,-3.91346,-22.1558,6.89697,69.9463
60.568,3.56379,-7.65928,-3.57337,-23.0713,24.7803,69.397
60.572,0.526905,-7.80297,-4.12422,-20.874,28.1982,67.5659
60.577,-1.10171,-8.24844,-4.55532,-18.2495,24.353,64.5752
60.583,-1.13045,-9.11544,-3.82245,-15.7471,21.5454,63.4766
60.587,0.0526895,-10.4375,-2.68721,-14.4043,24.7803,64.8804
60.593,0.536489,-10.7249,-2.49561,-12.6953,26.7944,63.2935
60.597,-0.191599,-10.016,-2.70159,-10.498,23.0103,59.8755
60.603,-0.958005,-9.65193,-2.71595,-8.60596,14.8926,59.3872
60.607,-0.153281,-9.74294,-2.67763,-6.89697,9.70459,61.7676
60.613,0.0383179,-9.81479,-2.62973,-5.85938,9.46045,61.7676
60.618,0.421526,-10.1166,-2.07888,-3.54004,9.58252,61.7065
60.623,0.114963,-9.80521,-2.2561,-1.83106,7.62939,61.2183
60.628,0.373624,-9.39327,-2.72074,-1.28174,6.04248,60.6079
60.632,0.34488,-9.36932,-2.20341,-0.976562,4.3335,59.2651
60.638,-0.301775,-9.41722,-1.99744,-0.488281,1.89209,58.8379
60.642,-0.215555,-9.49385,-1.90644,-0.12207,-0.610352,57.7393
60.647,-0.560435,-9.6184,-1.60466,-0.427246,-2.50244,56.5186
60.652,-0.507746,-9.63756,-1.80106,-0.610352,-3.90625,55.603
60.657,0.292191,-9.59924,-1.61425,-1.64795,-5.61523,54.3823
60.662,0.119751,-9.45554,-2.15072,-2.56348,-7.99561,52.4902
60.667,-0.177227,-10.1645,-1.53281,-1.46484,-12.5122,52.9785
60.672,1.00591,-9.422,-3.04168,-0.305176,-18.1274,51.5747
60.677,0.0670612,-9.25435,-4.038,-2.62451,-24.9634,45.4102
60.681,0.603541,-9.34537,-3.2716,-2.92969,-29.2969,47.4853
60.686,0.622709,-9.01485,-2.75428,-2.92969,-31.4941,47.9736
60.691,0.0287433,-8.86157,-2.81175,-3.2959,-33.9966,45.9595
60.696,-0.843052,-8.33946,-2.74469,-3.17383,-36.499,44.1284
60.701,-1.92081,-8.23887,-2.61057,-2.74658,-38.3301,42.1143
60.706,-2.05972,-8.78015,-1.89206,-1.89209,-38.6353,40.4053
60.711,-1.50407,-9.06275,-1.43222,3.2959,-33.3862,39.1846
60.716,-2.00703,-8.98132,-0.541277,-0.793457,-32.0435,36.8042
60.721,-2.0214,-9.72857,0.0670612,-1.70898,-29.4189,36.9263
60.725,-0.871785,-9.48428,0.0862201,0.610352,-22.7051,36.9263
60.73,-0.229927,-8.48316,-1.43701,-1.64795,-14.0381,34.9731
60.735,-0.665815,-8.37778,-2.71116,-3.96728,-8.97217,31.5552
60.74,-1.21667,-8.50711,-3.09916,-4.3335,-8.11768,29.7241
60.745,-1.31726,-8.72266,-2.9315,-4.63867,-9.15527,28.6865
60.75,-0.708929,-9.11065,-2.72553,-4.94385,-9.8877,27.4048
60.755,0,-9.34057,-2.68721,-4.57764,-9.15527,26.9165
60.76,0.0910074,-9.53218,-2.83571,-3.78418,-6.46973,26.8555
60.764,-0.455056,-9.71899,-3.171,-2.62451,-4.27246,26.6113
60.769,-0.9149,-9.74294,-3.57337,-1.70898,-4.21143,26.123
60.774,-1.13524,-9.63277,-3.78413,-0.976562,-6.83594,24.5972
60.779,-1.29331,-9.70941,-3.57337,-0.671387,-10.5591,22.3389
60.784,-1.3029,-10.0543,-3.21412,-0.061035,-9.8877,19.9585
60.789,-1.02507,-10.3225,-2.83091,0.12207,-3.96728,17.0898
60.794,-1.15919,-10.2076,-2.4046,-0.549316,-0.854492,15.0146
60.798,-1.26936,-9.98723,-2.29922,-0.061035,-3.96728,14.5874
60.803,-0.996333,-9.76689,-2.52915,0.12207,-8.42285,13.7329
60.808,-1.06338,-9.56091,-2.52435,0.12207,-14.4653,12.207
60.813,-1.19751,-9.41722,-2.29443,-0.305176,-20.752,11.2305
60.818,-1.33642,-9.46991,-1.90644,-0.549316,-25.7568,10.498
60.823,-1.40827,-9.51302,-1.75315,-0.366211,-29.4189,9.64355
60.828,-1.55197,-9.35016,-2.01182,-0.488281,-32.3486,7.87354
60.833,-1.55197,-9.02922,-2.59141,-0.366211,-33.8135,5.85938
60.837,-1.67172,-8.8951,-3.06563,0.061035,-29.9683,3.84522
60.843,-1.62862,-8.82804,-2.91713,0.732422,-23.0713,1.95312
60.847,-1.80106,-8.61728,-2.6489,1.83106,-20.3247,0.671387
60.853,-1.45138,-8.37299,-2.58184,3.23486,-21.5454,0.305176
60.857,-0.598753,-8.22929,-2.67284,4.5166,-22.0947,1.28174
60.863,-0.167653,-8.17181,-2.98899,5.98144,-21.9727,2.38037
60.868,0.665815,-8.16222,-2.9794,4.63867,-18.7988,4.69971
60.873,3.05125,-7.82213,-4.37331,0.915527,-4.21143,7.08008
60.878,3.74581,-7.30002,-5.28821,-1.15967,10.9253,9.27734
60.882,3.06084,-7.68801,-5.08702,-3.84522,21.3623,13.855
60.888,1.51365,-8.59812,-3.92304,-3.90625,24.5361,18.2495
60.892,-0.191599,-9.47469,-2.65368,-1.70898,24.353,21.9116
60.898,-0.560435,-9.92496,-1.90165,-0.061035,23.6206,24.4141
60.902,-0.196396,-9.60403,-1.47534,-0.671387,24.1089,25.6958
60.908,-0.148494,-9.04838,-1.59509,-1.95312,26.2451,26.3672
60.913,-0.392783,-8.84241,-1.94954,-2.01416,29.1138,27.4658
60.917,-0.526905,-8.87594,-2.03097,-2.56348,31.25,28.8086
60.923,-0.632284,-8.87594,-2.09804,-3.96728,33.2031,29.2969
60.927,-0.699345,-8.63165,-2.44292,-4.5166,35.0342,28.9917
60.933,-0.799937,-8.29156,-2.87403,-5.12695,37.5977,28.7476
60.937,-0.986749,-8.31551,-3.19496,-5.12695,39.917,28.1982
60.943,-1.11608,-8.43047,-3.14706,-4.21143,40.5273,27.5269
60.947,-0.948431,-8.72745,-3.10874,-4.45557,47.0581,26.123
60.952,-0.986749,-9.15376,-3.21891,-4.94385,61.6455,23.8037
60.958,-1.61903,-9.30225,-3.19496,-3.72314,64.5142,21.3623
60.962,-2.11719,-9.64235,-3.23328,-3.78418,59.4482,19.9585
60.968,-1.55197,-9.58487,-3.25244,-2.68555,54.6265,17.8223
60.972,-1.46096,-9.47949,-3.10394,-2.56348,51.5137,15.686
60.978,-1.89206,-9.53218,-3.20932,-2.2583,52.2461,13.916
60.982,-2.10762,-9.6663,-3.19496,-1.83106,55.7861,12.9395
60.988,-2.03577,-9.7142,-3.02251,-2.01416,58.8379,12.085
60.993,-1.90165,-9.54655,-3.09437,-2.31934,57.5561,10.8032
60.998,-1.59509,-9.40285,-3.32907,-2.2583,52.7344,10.3149
61.003,-1.14482,-9.39806,-3.40572,-1.64795,48.2788,10.8643
61.007,-0.905316,-9.53697,-3.46319,-1.46484,46.2036,11.4746
61.013,-1.07776,-9.62319,-3.33866,-0.976562,45.7153,11.1084
61.017,-1.32205,-9.65672,-2.98899,-0.427246,44.1894,10.9253
61.023,-1.2023,-9.6136,-2.90276,0.183105,41.8091,11.5356
61.027,-1.02028,-9.53697,-3.02251,0.610352,39.0625,12.146
61.033,-0.890944,-9.45075,-3.06563,1.15967,35.7666,12.5122
61.038,-1.03465,-9.44596,-2.95066,1.95312,31.4941,12.6343
61.042,-1.0586,-9.53697,-2.82134,2.44141,27.3437,13.0615
61.047,-0.934059,-9.59924,-2.75906,2.62451,24.7192,13.2446
61.052,-1.09213,-9.49865,-2.73512,2.86865,22.0337,12.9395
61.057,-1.23583,-9.3741,-2.76385,2.74658,19.165,13.2446
61.062,-1.07776,-9.22562,-2.70637,2.19727,17.334,13.3057
61.067,-1.20709,-8.9909,-2.78781,1.52588,17.2729,13.1226
61.072,-1.11608,-9.01485,-2.56746,-0.305176,18.6157,13.1226
61.076,-0.622709,-8.943,-3.19496,-1.89209,22.522,13.9771
61.081,-1.45618,-8.82804,-2.74469,-1.09863,23.4375,12.5732
61.086,-1.66693,-8.95737,-2.62015,-1.52588,23.8647,12.8174
61.091,-1.14003,-8.98612,-2.67763,-2.38037,25.0854,12.7563
61.096,-0.910103,-9.0915,-2.67763,-3.54004,26.001,10.9863
61.101,-0.785565,-9.30225,-2.50519,-4.08936,26.1841,10.1318
61.106,-0.646656,-9.35016,-2.43813,-4.3335,26.062,9.82666
61.111,-0.4311,-9.43159,-2.3567,-4.27246,23.1323,7.8125
61.116,-0.234714,-9.49385,-2.28963,-4.3335,19.2871,6.16455
61.12,0.0383179,-9.56091,-2.19863,-4.63867,16.2964,5.79834
61.125,0.268245,-9.43638,-2.27048,-4.94385,14.6484,5.24902
61.13,0.110166,-9.34057,-2.5004,-5.37109,13.6108,4.02832
61.135,-0.00958437,-9.46032,-2.45729,-5.5542,11.9019,2.92969
61.14,-0.479003,-9.46991,-2.50519,-5.43213,11.4746,2.44141
61.145,-1.15919,-9.331,-2.58662,-5.7373,11.9629,2.01416
61.15,-1.47054,-9.331,-2.66326,-6.10351,12.6343,1.34277
61.155,-1.61425,-9.40285,-2.86444,-5.92041,13.1836,1.28174
61.159,-1.346,-9.54655,-2.8405,-4.39453,11.6577,0.244141
61.164,-0.684973,-9.31663,-2.68721,-3.479,9.70459,-0.793457
61.169,-0.129335,-9.01965,-2.72074,-3.90625,9.39941,-1.89209
61.174,0.0191589,-9.10107,-2.78781,-4.27246,9.58252,-2.13623
61.179,-0.210758,-9.30704,-2.62015,-4.15039,9.76562,-2.31934
61.184,-0.57001,-9.35016,-2.52915,-4.3335,8.91113,-2.44141
61.189,-0.603541,-9.31184,-2.55309,-4.3335,7.32422,-2.44141
61.194,-0.550851,-9.2831,-2.56267,-4.15039,5.06592,-3.05176
61.198,-0.512533,-9.23041,-2.68721,-4.15039,3.17383,-3.2959
61.203,-0.435898,-9.26872,-2.77343,-4.3335,2.19727,-3.72314
61.208,-0.598753,-9.16334,-2.82134,-4.45557,1.95312,-3.84522
61.213,-0.617912,-9.10107,-2.83571,-4.82178,1.77002,-4.15039
61.218,-0.565223,-9.23519,-2.81175,-4.82178,2.07519,-3.66211
61.223,-0.704132,-9.30704,-2.93629,-4.08936,1.28174,-3.96728
61.228,-0.622709,-9.23041,-2.73512,-3.2959,-0.854492,-3.479
61.232,0.129335,-9.04359,-2.66806,-3.2959,-1.83106,-3.78418
61.238,-0.177227,-9.40763,-1.90165,-3.479,-2.31934,-3.66211
61.243,-0.234714,-10.3273,0.158069,1.09863,-7.08008,-0.305176
61.248,-3.05604,-7.65448,-5.06787,-5.06592,-5.61523,-0.427246
61.253,-0.704132,-8.69392,-4.66071,-10.1318,-12.6953,-8.66699
61.257,1.02985,-9.53218,-2.51477,-3.66211,-22.644,-5.49316
61.263,-0.531692,-8.91906,-3.22369,-4.94385,-14.8315,-3.66211
61.267,-0.895741,-9.09628,-2.27527,-6.22558,-12.085,-4.57764
61.273,0.0143716,-9.21125,-2.48124,-4.82178,-18.9209,-3.479
61.277,3.07041,-8.71787,-2.9315,-5.06592,-5.06592,-1.2207
61.283,-2.30401,-9.80042,-2.16988,-5.24902,8.36182,-1.52588
61.288,-0.277819,-9.17293,-2.50998,-5.61523,-1.52588,-2.01416
61.292,1.52323,-9.02922,-2.83571,-6.22558,-1.0376,-1.83106
61.298,-0.74246,-9.52738,-2.85965,-6.40869,6.28662,-2.86865
61.302,-1.85853,-9.48428,-2.47645,-5.00488,-0.793457,-3.60107
61.308,-1.43222,-9.08191,-3.66917,-5.49316,-12.5122,-4.39453
61.312,-1.24541,-9.25435,-3.64522,-7.56836,-15.0146,-5.12695
61.318,-1.16877,-8.71309,-3.3195,-7.32422,-13.5498,-5.06592
61.322,-1.31726,-8.90468,-3.47278,-7.08008,-14.1602,-5.43213
61.327,-0.459844,-8.97653,-3.38177,-7.38525,-16.8457,-6.65283
61.333,0.153281,-8.86637,-3.16143,-7.50732,-19.3481,-8.17871
61.337,-0.34488,-9.24478,-3.27638,-5.92041,-23.1934,-9.70459
61.343,-0.862211,-9.59444,-3.11831,-3.60107,-28.0151,-11.0474
61.347,-1.15919,-9.63756,-2.92672,-2.44141,-33.0811,-12.5732
61.353,-1.02507,-9.65193,-3.03209,-2.50244,-36.438,-13.855
61.357,-0.680186,-9.48428,-3.15663,-2.62451,-38.8184,-15.3198
61.363,-0.574807,-9.33578,-3.28118,-2.92969,-40.8325,-16.5405
61.368,-0.661027,-9.43159,-3.30513,-2.99072,-43.0908,-17.2729
61.373,-0.704132,-9.40285,-2.9794,-2.86865,-47.0581,-17.4561
61.377,-0.469428,-9.38847,-2.73032,-3.60107,-51.5137,-17.5781
61.382,0.373624,-9.31663,-2.81175,-5.06592,-56.2744,-17.2119
61.388,1.12566,-9.15376,-3.2716,-6.22558,-60.73,-15.9302
61.393,1.43701,-9.03401,-3.82724,-7.14111,-63.5986,-14.0381
61.397,1.3029,-8.96216,-4.20087,-7.50732,-65.4297,-11.2305
61.402,0.593966,-9.01965,-4.55054,-7.32422,-65.918,-6.65283
61.408,-0.0574768,-9.12981,-4.59365,-7.08008,-65.3076,-2.68555
61.412,-0.713717,-9.20166,-4.33978,-6.10351,-63.5376,1.0376
61.417,-1.42743,-9.58966,-4.2296,-4.27246,-62.3779,5.18799
61.423,-1.07297,-9.72857,-4.27272,-2.19727,-62.2559,7.99561
61.428,-0.402367,-9.3741,-4.46432,-0.793457,-62.0117,11.1694
61.432,0.455056,-9.09628,-4.71819,0.427246,-60.4858,15.8691
61.437,0.617912,-8.92863,-4.58407,2.31934,-57.7393,21.5454
61.442,0.124538,-9.22562,-4.05716,4.39453,-55.2978,28.3813
61.447,-0.110166,-9.6136,-3.92784,5.5542,-54.1382,35.2783
61.452,0,-10.016,-3.89431,7.01904,-54.5044,41.0767
61.457,0.536489,-9.72378,-3.85598,8.60596,-55.1758,46.6919
61.462,1.30768,-9.93934,-3.65959,9.58252,-56.3965,52.9175
61.467,1.98787,-9.9058,-3.90868,9.70459,-58.0444,60.73
61.472,2.3088,-10.3752,-4.00926,9.27734,-59.8755,68.7256
61.476,1.95434,-10.677,-4.35894,8.8501,-62.1948,78.3081
61.481,1.48491,-11.0794,-4.41163,9.76562,-66.5283,87.0361
61.486,0.958005,-12.0182,-4.00926,10.5591,-72.2046,95.0317
61.491,1.11608,-12.5164,-3.33387,10.8032,-77.2095,102.661
61.496,1.31247,-12.7511,-3.9422,8.36182,-79.2847,109.07
61.501,1.37953,-13.5271,-5.46065,2.92969,-81.1157,114.38
61.506,1.81543,-14.9689,-3.92304,5.37109,-83.0688,120.789
61.511,1.42265,-15.376,-1.87769,12.9395,-82.3975,126.282
61.515,0.526905,-16.1616,-1.5424,16.0522,-81.4209,131.165
61.52,-0.0814328,-17.6705,-1.93518,18.0054,-81.7261,138.245
61.525,0.167653,-18.8823,-2.09804,20.6299,-83.9844,144.47
61.53,0.958005,-19.4811,-2.23216,23.3154,-88.9282,149.475
61.535,1.70525,-19.3182,-2.76385,24.9634,-95.52,153.748
61.54,2.58662,-19.1554,-3.22849,23.6816,-102.844,157.898
61.545,3.9422,-19.4092,-2.71116,20.874,-109.375,163.696
61.549,4.79962,-20.0942,-1.86812,18.6768,-113.281,170.593
61.554,4.66071,-21.0522,-0.713717,17.7002,-115.54,179.443
61.559,4.44037,-21.7085,0.704132,17.7002,-116.638,187.866
61.564,4.64634,-21.9384,1.87291,17.0288,-117.31,193.726
61.569,5.55644,-21.8186,2.82134,15.3809,-116.15,197.144
61.574,6.1552,-21.148,3.00815,13.6108,-111.816,199.097
61.579,5.59477,-20.3289,2.26569,10.6201,-103.394,202.759
61.584,5.27384,-19.8212,0.651443,4.76074,-92.9565,210.205
61.589,6.89287,-18.9638,-1.05381,-3.66211,-83.313,215.942
61.593,8.37299,-18.0393,-2.85965,-13.0615,-76.1719,213.257
61.598,7.57306,-17.2777,-4.33019,-19.8975,-69.6411,206.116
61.603,6.34201,-16.2957,-5.0966,-26.062,-64.1479,200.317
61.608,4.79004,-15.1269,-5.05349,-33.4473,-60.9741,196.838
61.613,2.9315,-14.4947,-4.94332,-40.8936,-53.7109,192.139
61.618,-0.364039,-13.2061,-3.7027,-45.7153,-41.0767,182.495
61.623,-3.95178,-10.1118,-2.42376,-55.6641,-39.7949,170.959
61.627,-4.96727,-7.85087,-2.85965,-71.106,-47.9736,164.185
61.632,-5.63788,-6.82102,-3.10394,-79.9561,-53.2837,159.058
61.638,-6.35159,-6.28932,-2.65847,-82.5195,-57.373,153.259
61.643,-6.09293,-6.30848,-2.34233,-83.1299,-62.6831,145.996
61.647,-3.73144,-5.19719,-3.52068,-82.2754,-68.7256,131.104
61.652,-0.335306,-2.5004,-4.81399,-78.7354,-77.7588,100.037
61.658,2.78301,-2.03577,-3.45362,-72.876,-95.8862,62.1948
61.662,5.36006,-3.1279,-1.69568,-68.7256,-117.493,33.6914
61.667,6.48571,-2.97462,-0.689771,-65.3076,-130.737,15.7471
61.673,5.8151,-2.00703,-0.627497,-59.4482,-144.409,3.54004
61.678,5.44628,-0.608338,0.502959,-48.7671,-167.786,-15.1978
61.682,6.80185,1.01069,1.18314,-41.8701,-185.547,-38.3301
61.687,9.05318,1.04423,0.708929,-47.4853,-180.298,-57.9224
61.693,10.6531,-0.263448,0.910103,-53.5889,-166.87,-76.9653
61.698,11.3141,-1.66693,2.4525,-51.1475,-162.598,-98.2056
61.702,11.362,-2.53872,4.19128,-45.0439,-166.565,-119.385
61.708,10.8734,-2.56267,5.384,-41.3818,-170.288,-135.681
61.713,9.91538,-2.29922,5.76721,-41.4429,-169.128,-147.827
61.717,8.85199,-2.17947,5.67141,-43.9453,-164.673,-158.691
61.722,7.85566,-2.44771,5.70972,-46.814,-159.607,-170.532
61.728,6.87371,-2.85007,5.76241,-49.3774,-156.616,-184.143
61.733,5.90133,-3.27638,5.60913,-51.2085,-155.029,-198.547
61.737,5.06787,-3.57337,5.34568,-52.124,-153.992,-212.158
61.743,4.47869,-3.69791,5.09181,-52.4292,-153.32,-224.792
61.748,4.15775,-3.87515,4.69424,-52.7344,-152.283,-237.305
61.752,3.97094,-4.15775,4.32541,-52.6123,-150.085,-249.878
61.757,3.64522,-4.42121,3.95178,-52.5513,-147.644,-262.39
61.763,3.19016,-4.7086,3.6548,-52.7344,-146.667,-274.414
61.768,2.82134,-5.0966,3.32429,-52.9175,-147.461,-285.522
61.772,2.66326,-5.56124,2.8884,-53.3447,-149.231,-295.776
61.777,2.74948,-5.93485,2.61537,-53.6499,-151.55,-305.115
61.783,2.86444,-6.29412,2.31359,-54.3213,-153.259,-313.293
61.787,2.90276,-6.71084,1.99266,-55.8472,-152.771,-321.167
61.792,2.96503,-7.25691,1.71484,-57.0679,-151.855,-329.285
61.798,2.7399,-7.85087,1.44181,-57.8003,-150.269,-336.731
61.803,2.47645,-8.59333,1.21667,-58.5937,-148.987,-343.811
61.807,2.22737,-9.48907,1.04902,-57.9834,-150.085,-351.135
61.812,1.97828,-10.5908,1.21667,-56.3354,-155.151,-358.398
61.818,1.79626,-11.8841,1.70047,-53.3447,-163.635,-365.173
61.823,1.60946,-13.0145,2.22258,-50.415,-171.814,-370.422
61.827,1.08255,-14.2504,2.5483,-49.3164,-177.612,-373.535
61.832,0.574807,-15.3377,3.25244,-46.2646,-185.059,-375.305
61.837,-0.100592,-15.9269,3.87035,-45.5322,-188.721,-375.488
61.842,-0.823883,-16.1568,4.22481,-47.8516,-186.462,-376.282
61.847,-1.48491,-16.0945,3.73144,-51.3306,-182.861,-377.38
61.852,-1.65735,-16.2334,2.78781,-55.7861,-180.481,-375.915
61.857,-1.37474,-16.8514,2.38065,-58.8989,-176.331,-372.62
61.862,-1.73878,-18.068,1.84896,-61.9507,-166.809,-369.751
61.867,-2.98419,-19.1602,1.2023,-64.5142,-152.893,-366.882
61.871,-4.59365,-19.8116,0.871785,-65.6738,-138.977,-363.159
61.876,-6.08814,-20.5876,0.546064,-67.1997,-126.404,-359.619
61.881,-7.30002,-21.536,0.522118,-68.7866,-118.408,-356.384
61.886,-7.6449,-22.1443,0.479003,-69.519,-114.197,-351.135
61.891,-7.75028,-22.4365,0.220342,-69.8242,-109.009,-343.262
61.896,-8.15744,-22.7623,-0.0239462,-69.7021,-102.234,-334.228
61.901,-8.9909,-23.1598,-0.186812,-68.6646,-97.5342,-323.853
61.906,-10.1788,-23.2077,0,-66.7725,-97.5342,-310.486
61.91,-11.1895,-22.5946,0.392783,-65.0635,-99.9145,-295.471
61.915,-11.8745,-21.2103,1.13524,-63.2935,-101.44,-281.067
61.92,-12.1667,-19.5769,1.94475,-60.2417,-100.037,-267.334
61.925,-12.2433,-18.5614,2.46687,-54.8706,-96.0693,-251.404
61.93,-12.5355,-18.2692,2.5962,-47.3633,-90.0879,-231.812
61.935,-13.3067,-18.5518,2.39502,-38.6353,-83.6182,-209.228
61.94,-14.442,-18.8249,1.84416,-31.1279,-79.2236,-186.645
61.944,-15.6012,-18.638,1.07776,-25.2075,-77.5757,-165.588
61.949,-16.8466,-18.0632,0.469428,-20.3247,-78.4912,-145.386
61.954,-17.9195,-17.2825,0.205971,-16.0522,-81.9092,-125.244
61.959,-18.456,-16.4777,0.287404,-11.9629,-86.5478,-103.455
61.964,-18.6141,-15.8119,0.766406,-8.36182,-90.271,-79.834
61.969,-18.4081,-15.1796,1.40348,-4.82178,-91.9189,-55.8472
61.974,-18.0489,-14.6958,1.98307,-0.854492,-90.9424,-31.4941
61.979,-17.613,-14.4037,2.3088,4.21143,-87.5854,-7.44629
61.984,-17.1531,-14.2025,2.36149,10.1318,-83.1299,15.625
61.988,-16.4586,-14.1546,2.24174,16.2354,-78.6743,37.4756
61.993,-14.0588,-17.2489,0.129335,18.6157,-74.8291,58.3496
61.998,-8.74662,-18.7338,-0.34488,17.1509,-71.8994,80.6885
62.003,-4.37331,-14.1258,2.00224,24.1699,-61.4014,95.2759
62.008,-2.7399,-11.3189,-0.234714,22.3389,-45.0439,99.7925
62.013,0.996333,-9.49385,-4.35894,16.7236,-33.1421,98.0835
62.018,7.80297,-9.19209,-7.75507,12.9395,-33.4473,89.4165
62.022,16.9136,-9.68546,-8.98132,9.94873,-43.1519,74.0356
62.027,24.9561,-8.74662,-7.93709,7.75146,-56.6406,52.1851
62.033,28.2229,-6.22705,-5.1014,7.8125,-65.6128,32.7759
62.037,25.7752,-3.81766,-1.91602,11.1694,-59.9365,26.7944
62.042,17.2298,-3.03209,0.713717,16.1133,-36.7432,31.3721
62.048,6.00671,-4.06675,1.69568,18.0054,-10.5591,37.4756
62.053,-1.46096,-6.60547,1.55676,17.4561,4.3335,42.9687
62.057,-4.33019,-9.48428,0.699345,15.564,7.75146,48.9502
62.062,-3.53984,-11.4674,-0.617912,12.3901,6.04248,56.7627
62.068,-0.177227,-12.0182,-1.95913,8.54492,5.92041,63.7207
62.073,4.03321,-11.1656,-2.99378,5.31006,8.66699,63.9648
62.077,7.05572,-10.2028,-3.07041,4.08936,13.0005,59.6924
62.083,8.04247,-9.82437,-2.48603,2.99072,20.6909,58.1665
62.088,6.23663,-10.0734,-1.23583,1.95312,30.8838,61.4624
62.092,2.68243,-10.792,-0.340093,0.610352,41.748,67.4438
62.097,-0.790352,-11.4817,-0.249086,-1.28174,49.6826,72.3267
62.103,-2.2609,-12.0948,-0.852626,-4.08936,50.9033,74.646
62.108,-1.89685,-12.3487,-1.50407,-7.14111,45.4712,74.8901
62.112,-0.531692,-11.8985,-2.04056,-9.33838,38.3301,75.2563
62.118,0.641868,-10.8686,-2.34712,-11.2915,33.8135,75.4395
62.123,1.22146,-10.0303,-2.39981,-12.9395,32.1045,75.4395
62.127,1.03465,-9.74773,-2.5004,-13.916,30.8228,76.1719
62.132,0.598753,-9.72857,-2.5962,-14.7705,28.0151,76.9653
62.138,0.364039,-9.49385,-2.78301,-14.8315,24.353,76.9043
62.143,0.148494,-9.03401,-3.32429,-14.7095,20.2637,75.2563
62.147,0.0862201,-8.61728,-3.88951,-14.0381,15.5029,72.6318
62.152,0.0191589,-8.3203,-4.16254,-12.5122,10.3149,69.458
62.158,-0.114963,-8.30593,-4.26313,-10.7422,5.31006,66.2842
62.162,-0.407154,-8.46879,-4.40204,-9.15527,1.0376,64.1479
62.167,-0.694558,-8.62686,-4.96727,-8.48389,-2.31934,61.8286
62.173,-0.565223,-8.89031,-4.87147,-8.42285,-3.05176,59.7534
62.178,-0.560435,-9.33578,-4.6176,-7.99561,-0.427246,58.5937
62.182,-0.48379,-9.58966,-4.50263,-7.26318,4.63867,58.4106
62.187,-0.100592,-9.48907,-4.39247,-6.5918,9.76562,57.312
62.193,-0.0479022,-9.47949,-4.26313,-5.49316,12.5732,55.1147
62.198,-0.229927,-9.48907,-4.14338,-4.15039,11.3525,51.9409
62.202,-0.474215,-9.38847,-3.98531,-2.50244,7.38525,48.8281
62.208,-0.713717,-9.48428,-3.78413,-0.732422,2.92969,46.1426
62.213,-0.790352,-9.64235,-3.61169,0.549316,-0.732422,44.5557
62.217,-0.455056,-9.63277,-3.54463,1.46484,-3.2959,42.4194
62.222,-0.124538,-9.46512,-3.45841,1.95312,-3.66211,39.978
62.227,0.0814328,-9.35016,-3.23807,2.13623,-3.11279,37.7808
62.232,0.0766455,-9.35974,-3.05604,2.2583,-2.86865,36.1938
62.237,-0.0191589,-9.35016,-2.93629,2.38037,-3.84522,34.6069
62.242,-0.244289,-9.38847,-2.83571,2.38037,-6.10351,33.02
62.247,-0.215555,-9.47469,-2.84528,2.44141,-9.09424,31.6772
62.252,-0.00478728,-9.39806,-2.96982,1.83106,-11.3525,30.0903
62.257,0.17244,-9.15856,-3.17579,1.2207,-12.207,28.6865
62.262,0.325721,-9.04359,-3.29075,0.854492,-12.7563,27.771
62.266,0.627497,-8.93821,-3.38656,0.671387,-13.5498,27.2217
62.271,0.857414,-8.82804,-3.47757,0.610352,-13.3667,26.5503
62.276,0.9149,-8.73703,-3.52547,0.610352,-12.8174,26.062
62.281,0.919687,-8.86637,-3.46319,1.09863,-13.2446,25.5737
62.286,0.833467,-9.10587,-3.53505,2.38037,-15.1978,25.8179
62.291,0.938846,-8.9909,-3.55421,3.72314,-17.2119,26.123
62.296,0.924475,-8.58854,-3.63564,3.78418,-17.2729,25.6348
62.3,0.718504,-8.48316,-3.7027,3.90625,-17.8223,25.6348
62.305,0.641868,-8.53585,-3.66438,4.39453,-19.6533,25.3296
62.31,0.613125,-8.64123,-3.58295,4.76074,-20.9351,24.9634
62.315,0.574807,-8.78015,-3.53984,4.88281,-22.2778,25.1465
62.32,0.785565,-8.85199,-3.62127,5.31006,-23.3154,25.8179
62.325,1.14003,-8.81846,-3.67875,5.67627,-24.231,26.3672
62.33,1.825,-8.80888,-3.72665,5.43213,-24.4141,26.9165
62.335,2.36628,-8.7035,-3.68354,5.06592,-23.0103,27.8931
62.34,2.28963,-8.44005,-3.54463,4.69971,-20.3857,29.2969
62.344,1.89206,-8.34904,-3.60211,4.69971,-17.8223,30.9448
62.349,1.23583,-8.52148,-3.57337,4.82178,-15.9302,32.7759
62.354,0.608338,-8.86637,-3.42009,5.06592,-14.8315,34.0576
62.359,0.253873,-9.03401,-3.30034,5.37109,-14.2822,35.4004
62.364,0.210758,-9.18729,-3.40572,5.12695,-14.8315,36.5601
62.369,0.335306,-9.20166,-3.46799,4.88281,-16.7236,37.4146
62.374,0.857414,-9.01965,-3.48715,4.5166,-19.3481,38.208
62.379,1.14003,-8.83284,-3.46319,4.02832,-20.3857,39.2456
62.383,1.10171,-8.76577,-3.44404,3.96728,-20.6299,40.4663
62.388,0.713717,-8.87594,-3.5111,4.27246,-20.9961,41.5039
62.393,0.0239462,-8.94779,-3.42966,4.27246,-22.1558,42.4805
62.398,-0.22513,-9.01965,-3.1231,4.15039,-24.292,43.0298
62.403,-0.0958045,-9.07234,-2.94587,3.35693,-26.123,43.0908
62.408,-0.148494,-8.8951,-2.89318,2.44141,-26.4282,43.9453
62.413,-0.292191,-8.81846,-2.99378,1.89209,-26.001,44.3115
62.417,-0.48379,-8.91426,-3.08478,1.40381,-25.3296,44.7998
62.423,-0.421526,-8.93343,-3.09916,0.854492,-25.4517,45.2881
62.428,-0.191599,-8.93821,-3.171,0.305176,-25.7568,46.0815
62.432,0.0431149,-9.04359,-3.27638,-0.183105,-25.4517,46.936
62.437,-0.00958437,-9.01485,-3.42966,-0.549316,-25.5737,47.0581
62.443,-0.124538,-8.98132,-3.57337,-0.976562,-25.5737,47.4243
62.448,-0.148494,-8.943,-3.51588,-1.52588,-25.5127,47.7905
62.452,-0.273032,-8.99569,-3.40093,-2.2583,-24.9634,48.0347
62.458,-0.637071,-9.10107,-3.41051,-2.68555,-25.1465,48.1567
62.463,-0.780778,-9.16334,-3.32907,-3.11279,-25.6348,47.7905
62.467,-0.876573,-9.29747,-3.40093,-3.35693,-26.062,47.1802
62.472,-0.953218,-9.29268,-3.33866,-3.35693,-27.1606,46.3257
62.478,-0.924475,-9.32141,-3.18538,-3.54004,-27.4048,45.5933
62.483,-0.728088,-9.40285,-3.03209,-4.27246,-26.8555,45.4712
62.487,-0.732876,-9.1825,-3.13269,-5.5542,-25.6348,45.6543
62.493,-0.536489,-9.1825,-3.38656,-6.5918,-25.6348,45.5933
62.498,-0.296978,-9.26394,-3.559,-7.38525,-26.6113,45.8374
62.502,-0.201183,-9.31663,-3.55421,-8.17871,-27.5269,46.5088
62.507,-0.268245,-9.23041,-3.46799,-8.54492,-27.4658,47.9126
62.513,-0.34488,-9.25915,-3.39135,-9.15527,-26.6724,49.6826
62.518,-0.325721,-9.29747,-3.3626,-9.76562,-25.4517,51.6968
62.522,-0.335306,-9.15856,-3.58295,-10.5591,-24.1699,53.6499
62.527,-0.220342,-9.07234,-3.87993,-11.3525,-23.4985,55.603
62.533,-0.13891,-9.08191,-4.33499,-12.207,-22.8882,57.9224
62.537,0.0143716,-9.23999,-4.85231,-12.6343,-23.0713,60.3638
62.542,0.00958437,-9.56091,-5.57081,-13.855,-23.9258,62.3169
62.548,-0.584382,-9.31663,-5.16366,-12.4512,-25.5737,64.3921
62.553,-0.943634,-9.17293,-4.48827,-9.39941,-27.3437,64.9414
62.557,-0.919687,-10.0974,-4.38288,-7.8125,-30.0903,67.1387
62.562,-1.32205,-10.4327,-4.2296,-6.5918,-32.2876,70.6787
62.568,-1.10171,-9.88665,-3.90868,-5.12695,-33.3862,71.0449
62.573,-0.953218,-10.7872,-3.70749,-4.69971,-34.4238,72.1436
62.577,-1.07297,-10.8638,-3.28118,-3.84522,-35.7056,74.7681
62.583,-1.03944,-11.1129,-3.01772,-3.479,-36.2549,76.8433
62.588,-0.962802,-11.4099,-2.96503,-3.479,-36.7432,79.5288
62.592,-0.689771,-11.6829,-2.94587,-3.35693,-36.6821,80.8105
62.597,-0.74246,-12.114,-2.9794,-3.17383,-36.6211,83.374
62.603,-0.82868,-12.3439,-3.04168,-2.50244,-36.9873,86.1206
62.608,-0.905316,-12.5882,-3.16622,-2.56348,-38.3301,89.1724
62.612,-0.924475,-12.4158,-3.32907,-2.74658,-40.2222,91.8579
62.618,-0.541277,-12.4781,-3.54941,-3.96728,-41.626,94.1162
62.622,-0.25866,-12.5451,-3.63564,-4.82178,-42.2974,97.6562
62.627,-0.249086,-12.4733,-3.80329,-5.24902,-42.7856,100.891
62.632,-0.210758,-12.7607,-3.91825,-5.49316,-44.1894,103.76
62.637,-0.411942,-13.1726,-3.91825,-5.5542,-45.8984,107.361
62.642,-0.474215,-13.6277,-3.80809,-5.00488,-49.4995,111.45
62.647,-0.368836,-13.9246,-3.72665,-4.27246,-53.1006,114.807
62.652,-0.196396,-14.1067,-3.47757,-3.66211,-55.8472,117.798
62.657,-0.13891,-14.236,-3.16622,-2.86865,-57.6172,120.239
62.661,-0.100592,-14.3797,-2.8836,-1.89209,-59.9365,122.925
62.666,-0.119751,-14.4372,-2.59141,-1.34277,-63.0493,125.977
62.671,-0.17244,-14.4851,-2.37586,-1.77002,-67.0166,128.906
62.676,0.0383179,-14.5857,-2.21779,-2.01416,-71.7773,131.653
62.681,0.48379,-14.8874,-2.07409,-1.95312,-76.7822,134.705
62.686,1.03944,-15.4622,-2.00224,-0.915527,-80.9936,138.184
62.691,1.24062,-16.0227,-1.95434,0.915527,-84.8389,141.907
62.695,1.53281,-16.6885,-1.84416,2.68555,-89.7827,145.386
62.7,2.10762,-17.2202,-1.734,4.63867,-96.9238,148.499
62.705,2.89318,-17.6082,-1.68131,6.46973,-105.286,151.306
62.71,3.55421,-18.0058,-1.74357,7.56836,-113.22,154.419
62.715,4.2296,-18.3219,-1.79626,8.23975,-120.117,158.386
62.72,3.92304,-18.5087,-2.12678,7.62939,-125.61,163.208
62.725,3.61648,-18.5758,-2.44771,5.79834,-130.31,168.518
62.73,3.81287,-18.1399,-2.92672,2.13623,-134.827,172.913
62.735,4.09069,-17.3687,-4.06196,-4.02832,-137.939,175.598
62.739,4.29666,-16.8849,-5.32653,-11.0474,-137.146,178.101
62.744,4.34935,-16.6598,-6.29412,-17.0898,-132.996,181.702
62.749,4.05716,-16.3676,-6.90244,-23.0713,-125.854,185.303
62.754,3.21412,-15.9317,-6.74438,-28.6255,-117.615,187.439
62.759,2.20821,-14.8731,-6.27495,-34.4238,-110.474,186.584
62.764,1.2502,-13.7714,-5.59956,-39.4287,-105.164,182.312
62.769,0.560435,-12.5786,-5.01517,-43.335,-101.99,176.392
62.773,0.00478728,-11.2949,-4.67508,-47.4243,-99.1211,168.396
62.778,-0.823883,-10.1932,-3.97094,-49.1943,-96.4966,156.555
62.783,-1.69088,-9.44116,-2.92193,-48.3398,-96.7407,142.7
62.788,-2.60578,-8.73703,-2.10762,-45.227,-101.746,130.554
62.793,-3.68833,-8.58854,-2.29443,-40.6494,-111.328,121.338
62.798,-3.45841,-8.59812,-2.09325,-34.79,-126.953,114.197
62.803,-1.64298,-8.52627,-1.24541,-34.79,-142.822,106.934
62.808,-0.512533,-8.34904,-0.517321,-42.2363,-149.902,101.135
62.812,-1.04423,-7.68801,0,-51.3306,-145.691,95.459
62.817,-2.5483,-6.07377,-0.124538,-56.1523,-137.634,85.9375
62.822,-5.01517,-3.61648,-0.804724,-57.251,-132.935,70.9839
62.827,-6.72522,-1.53281,-1.63819,-59.1431,-130.005,52.2461
62.832,-4.56969,-2.16031,-2.15072,-67.8711,-127.93,38.5742
62.837,-1.35559,-4.22481,-1.47534,-74.5239,-128.967,34.3018
62.842,-0.981961,-4.69424,-0.143697,-65.7349,-132.08,24.7803
62.847,-2.73512,-1.65256,-0.766406,-48.7671,-139.099,-9.33838
62.852,-2.35191,1.33163,-1.47534,-47.8516,-147.217,-53.5889
62.856,0.488587,0.498162,-0.886157,-59.8755,-147.095,-72.5708
62.861,3.92304,-1.96391,0.0191589,-66.9556,-141.296,-78.2471
62.866,5.74325,-3.44883,1.22625,-65.7349,-133.24,-87.5244
62.871,6.69169,-4.02363,2.74469,-60.3027,-122.864,-99.1821
62.876,7.39582,-3.64522,4.26793,-52.7344,-110.352,-112.427
62.881,7.15153,-2.98419,5.16366,-47.8516,-95.459,-125
62.886,5.9636,-2.66806,5.50375,-46.9971,-81.2378,-134.949
62.89,4.97206,-2.63452,5.54207,-47.7905,-71.0449,-142.456
62.895,4.54096,-2.78301,5.78157,-47.9736,-63.1714,-148.743
62.9,4.24397,-3.19016,6.01629,-47.3633,-54.3823,-155.518
62.905,3.69791,-3.5111,5.67619,-46.6309,-44.4946,-163.574
62.91,3.17579,-3.76976,5.05349,-46.875,-35.5225,-172.668
62.915,2.60099,-4.06196,4.64155,-44.2505,-32.0435,-181.274
62.92,1.95434,-4.60802,4.06675,-39.978,-33.2642,-189.575
62.925,1.70525,-5.20198,3.53026,-36.377,-35.0952,-198.608
62.93,1.52323,-5.55644,3.11353,-33.6304,-35.9497,-208.557
62.934,1.3029,-5.81032,2.80696,-31.0669,-36.0107,-218.689
62.939,1.21188,-5.8678,2.62015,-28.2593,-37.0483,-228.333
62.944,1.12566,-5.9636,2.30401,-26.001,-38.5132,-236.999
62.949,1.02507,-6.08335,2.13157,-23.1934,-39.4897,-245.544
62.954,0.972377,-6.16957,2.13635,-20.5078,-39.6118,-254.578
62.959,0.819096,-6.38991,2.1651,-18.0054,-40.2832,-263.733
62.964,0.593966,-6.64378,2.03097,-15.686,-42.9077,-272.4
62.969,0.445472,-6.90724,1.83937,-13.5498,-47.6685,-281.128
62.973,0.574807,-7.28565,1.64778,-11.7798,-54.8706,-289.978
62.978,0.766406,-7.55868,1.59987,-10.0708,-63.2935,-298.279
62.983,0.804724,-7.84609,1.2981,-9.15527,-71.8994,-306.274
62.988,0.876573,-8.19097,1.08255,-8.11768,-81.9702,-313.477
62.993,1.24541,-8.56459,0.924475,-7.08008,-91.1255,-319.58
62.998,1.49928,-8.80888,0.910103,-7.50732,-97.168,-326.172
63.003,1.50887,-9.20646,0.641868,-8.91113,-102.234,-333.862
63.007,1.47534,-9.85311,0.464631,-9.82666,-108.093,-341.309
63.013,1.44659,-10.5668,0.411942,-10.376,-114.502,-347.595
63.018,1.48491,-11.2853,0.469428,-10.9863,-120.3,-353.088
63.022,1.58071,-11.9128,0.694558,-12.4512,-123.84,-358.093
63.027,1.51844,-12.4828,0.780778,-15.3809,-125.671,-362.305
63.033,1.27894,-13.1918,0.910103,-18.2495,-129.944,-365.356
63.037,1.56156,-13.9821,1.24541,-18.6157,-137.207,-366.943
63.042,1.9256,-14.624,1.69568,-18.9209,-139.832,-367.676
63.048,1.68131,-15.3617,1.825,-21.7895,-136.902,-369.751
63.053,1.2502,-16.267,1.38432,-25.5737,-132.812,-370.972
63.057,0.684973,-16.8082,0.579594,-30.3955,-127.93,-370.728
63.062,0.268245,-17.2154,-0.0814328,-36.3159,-122.253,-370.178
63.068,-0.0622739,-17.9579,-0.316147,-41.748,-115.967,-369.568
63.073,-1.00591,-18.9973,-0.948431,-47.6685,-107.91,-368.103
63.077,-2.48124,-20.2762,-1.66693,-53.5278,-96.1304,-365.051
63.083,-4.35415,-21.5456,-1.94475,-58.1055,-82.5806,-361.938
63.088,-6.6821,-22.4557,-2.36149,-63.1103,-72.6929,-359.619
63.092,-8.49274,-23.0688,-2.89797,-68.5425,-68.9087,-355.957
63.097,-9.47949,-23.3706,-3.39613,-73.6084,-68.5425,-349.853
63.103,-10.3177,-23.4281,-3.63085,-77.5757,-68.2373,-341.675
63.108,-11.2949,-23.2748,-3.21891,-79.2847,-68.8477,-332.214
63.112,-11.9464,-23.0784,-2.43334,-79.834,-71.4111,-319.763
63.118,-12.2338,-22.5036,-1.22146,-80.1392,-72.6318,-303.65
63.123,-12.6792,-21.6941,0.0622739,-78.3691,-70.8618,-285.156
63.127,-13.5462,-20.5636,1.57113,-73.7305,-68.0542,-265.198
63.132,-14.3797,-19.323,2.72074,-67.5659,-64.209,-244.446
63.138,-15.467,-18.4704,3.03209,-60.0586,-57.8003,-222.412
63.143,-17.043,-18.3411,2.75428,-50.7812,-50.6592,-198.669
63.147,-18.9925,-18.7291,2.32316,-40.0391,-46.0205,-173.34
63.152,-21.5743,-19.0931,2.14115,-28.3203,-48.0957,-146.484
63.158,-23.8448,-19.1985,2.49561,-14.4043,-59.6924,-121.033
63.162,-25.0184,-18.0201,1.85853,-1.28174,-77.2705,-93.3838
63.167,-23.9071,-15.3281,0.407154,4.69971,-84.5337,-64.0869
63.173,-21.2774,-13.1151,-0.814308,5.18799,-75.8667,-35.5225
63.178,-18.6333,-13.5941,-2.11719,5.43213,-60.3638,-8.42285
63.182,-16.813,-18.3842,-5.80074,-1.70898,-51.0254,23.0713
63.187,-14.9593,-14.0348,-2.63452,4.08936,-39.856,53.894
63.193,-13.7809,-12.1571,-0.579594,10.9863,-22.2778,83.9233
63.198,-12.7415,-12.9379,-0.536489,15.8691,-6.46973,115.601
63.202,-6.96472,-11.2518,-3.20932,19.4092,1.40381,128.906
63.208,5.37443,-10.2507,-7.04615,13.9771,2.01416,114.563
63.212,17.6561,-10.8686,-7.76465,4.63867,-3.17383,79.1016
63.217,22.5898,-11.4003,-4.50743,0.854492,-21.8506,47.7905
63.222,22.6329,-9.94412,0.0814328,5.67627,-39.7949,44.7388
63.227,18.9877,-6.55756,3.34344,15.0146,-31.311,63.8428
63.232,11.0985,-4.96248,4.7613,19.104,9.15527,79.4678
63.237,3.84162,-6.82102,5.11097,16.7236,53.3447,82.0923
63.242,1.02507,-9.86269,4.50743,14.2822,78.6743,82.0312
63.247,1.57593,-12.7128,3.3626,11.1084,89.4165,87.0972
63.251,3.63564,-14.8874,2.50519,7.8125,89.2334,94.9097
63.256,4.82836,-15.9556,2.20821,5.43213,82.0923,103.516
63.261,3.15185,-15.5101,2.04535,1.83106,76.5991,111.206
63.266,0.191599,-13.8672,1.17356,-4.57764,75.5615,117.615
63.271,-2.12678,-12.1523,-0.546064,-12.2681,77.3315,121.094
63.276,-3.40572,-11.8218,-1.80106,-18.0664,80.3833,121.704
63.281,-3.20932,-12.3679,-2.32316,-20.3857,80.8105,119.568
63.285,-2.4525,-12.1092,-2.39502,-20.2026,78.9795,115.295
63.29,-1.346,-11.0554,-2.19384,-19.8364,72.937,111.328
63.295,0.143697,-9.73336,-2.08846,-20.1416,65.1855,108.887
63.3,1.00112,-8.7035,-2.43334,-21.1182,60.2417,107.117
63.305,0.953218,-8.2724,-3.1231,-22.0947,58.3496,104.858
63.31,0.546064,-8.29635,-3.78413,-22.9492,58.5937,102.356
63.315,-0.0143716,-8.6556,-4.33499,-23.1323,59.2041,99.9756
63.32,-0.531692,-8.97653,-4.64155,-22.3999,58.5327,98.2666
63.325,-0.804724,-8.88553,-4.96727,-21.3623,56.2134,96.4966
63.329,-0.934059,-8.60291,-5.0966,-19.9585,52.4292,93.5669
63.334,-1.18314,-8.87115,-4.48827,-17.0288,46.0815,91.6748
63.339,-1.91122,-9.39327,-3.56858,-12.6953,36.377,89.8437
63.344,-2.2609,-9.7142,-3.15185,-8.78906,22.7051,86.9141
63.349,-2.13157,-9.84832,-3.05604,-6.10351,9.39941,84.0454
63.354,-1.58071,-9.7621,-2.95546,-4.45557,-2.99072,82.5806
63.359,-0.646656,-9.52738,-3.04647,-3.84522,-13.5498,79.7729
63.363,0,-9.3741,-3.10874,-3.96728,-18.9209,76.7822
63.368,0.134122,-9.23999,-3.24285,-4.5166,-18.5547,74.2188
63.373,0.0239462,-9.26872,-3.24765,-5.24902,-15.2588,72.5708
63.378,-0.177227,-9.51781,-2.84528,-5.18799,-12.6343,71.0449
63.383,-0.608338,-9.67109,-2.47645,-4.76074,-12.6343,68.9697
63.388,-0.871785,-9.73336,-2.2561,-4.21143,-15.625,66.9556
63.393,-0.608338,-9.73336,-2.13157,-4.08936,-19.7144,64.6973
63.398,0.0718484,-9.58966,-2.0693,-4.57764,-22.644,62.1338
63.402,0.593966,-9.3789,-2.19863,-5.85938,-22.0337,60.3027
63.408,0.670602,-9.31663,-2.37586,-7.26318,-18.6768,59.7534
63.412,0.694558,-9.33578,-2.42376,-8.30078,-14.5264,59.3872
63.417,0.488587,-9.46991,-2.41418,-8.8501,-10.437,58.8379
63.423,0.320934,-9.51781,-2.45729,-9.52148,-7.44629,58.5937
63.428,0.316147,-9.5705,-2.53872,-10.0098,-5.5542,58.4106
63.432,0.502959,-9.48428,-2.85487,-10.437,-4.08936,57.6172
63.437,0.637071,-9.25915,-3.26681,-10.6201,-2.56348,56.7627
63.443,0.622709,-9.07712,-3.53026,-9.70459,-0.671387,56.2134
63.448,0.407154,-8.98132,-3.64043,-8.05664,0.427246,55.3589
63.452,0.249086,-8.94779,-3.65959,-6.10351,0.366211,54.2602
63.458,0.316147,-8.93821,-3.62606,-4.39453,-0.793457,52.7954
63.463,0.579594,-9.01485,-3.6069,-2.74658,-2.80762,51.6357
63.467,0.651443,-8.95259,-3.56858,-0.976562,-4.76074,50.5371
63.472,0.239501,-8.88553,-3.48235,0.793457,-5.79834,49.5605
63.478,-0.201183,-8.84241,-3.3626,2.38037,-7.14111,48.4009
63.483,-0.502959,-8.86157,-3.15185,3.479,-8.48389,47.3022
63.487,-0.680186,-8.96696,-3.01294,4.02832,-10.0098,46.0815
63.493,-0.756822,-9.07712,-2.94109,3.84522,-11.2915,44.9829
63.498,-0.938846,-9.20646,-2.76865,3.60107,-13.1226,44.1284
63.503,-1.07776,-9.28788,-2.61057,3.54004,-15.9912,43.396
63.507,-1.10171,-9.26872,-2.43813,3.05176,-19.2261,42.5415
63.513,-1.00591,-9.26394,-2.30401,2.44141,-21.4844,41.9311
63.518,-0.943634,-9.20646,-2.3088,0.854492,-22.1558,41.4429
63.522,-0.857414,-9.15856,-2.4046,-0.915527,-21.2402,40.4663
63.527,-0.890944,-9.11544,-2.39981,-1.95312,-20.752,39.5508
63.533,-0.866998,-9.16334,-2.38065,-2.56348,-20.9961,39.3066
63.537,-0.838255,-9.1394,-2.40939,-2.99072,-21.6064,38.9404
63.542,-0.708929,-9.15376,-2.53872,-3.23486,-22.0947,38.3301
63.548,-0.579594,-9.25915,-2.61057,-3.66211,-21.7285,37.7197
63.553,-0.39757,-9.19209,-2.80218,-3.84522,-20.874,37.0483
63.557,-0.316147,-9.10107,-3.01294,-3.96728,-19.4702,36.438
63.562,-0.263448,-9.14897,-3.04647,-3.90625,-17.5781,36.1328
63.568,-0.229927,-9.15376,-3.11353,-3.41797,-15.8691,35.7056
63.573,-0.162866,-9.16334,-3.171,-2.99072,-15.1367,34.9731
63.577,-0.0431149,-9.29268,-3.19975,-3.11279,-14.3433,34.4849
63.583,-0.0862201,-9.41243,-3.22849,-2.68555,-13.5498,34.3628
63.588,-0.129335,-9.39806,-3.16143,-2.44141,-12.7563,34.1187
63.592,-0.239501,-9.35494,-3.03688,-2.62451,-12.0239,33.6914
63.597,-0.282616,-9.38369,-3.01294,-2.99072,-11.2915,33.6914
63.603,-0.536489,-9.26394,-2.83091,-2.68555,-10.6812,33.4473
63.607,-0.608338,-9.17293,-2.73032,-3.05176,-9.09424,33.3252
63.612,-0.699345,-9.21125,-2.75906,-3.84522,-7.44629,33.0811
63.617,-0.814308,-9.22562,-2.80218,-4.63867,-6.40869,32.6538
63.622,-0.96759,-9.14897,-2.82134,-5.18799,-5.79834,32.3486
63.627,-0.929272,-9.23519,-2.93629,-5.67627,-5.98144,32.2266
63.632,-0.890944,-9.33578,-2.94587,-5.7373,-6.22558,32.2266
63.637,-0.785565,-9.36932,-3.06084,-5.61523,-6.83594,32.2266
63.642,-0.958005,-9.25435,-3.13747,-5.31006,-7.32422,31.9824
63.646,-1.09691,-9.27831,-3.07521,-5.31006,-8.05664,31.4941
63.651,-1.21188,-9.17772,-3.02731,-5.24902,-8.42285,31.25
63.656,-1.1065,-9.02443,-3.01294,-5.31006,-8.91113,30.9448
63.661,-1.14003,-9.03881,-2.98899,-5.67627,-9.0332,31.0059
63.666,-1.06818,-9.26872,-2.98419,-5.7373,-9.58252,31.25
63.671,-1.04902,-9.23041,-3.02251,-5.67627,-10.1929,31.9824
63.676,-0.943634,-9.26872,-3.1279,-5.7373,-10.9863,32.959
63.68,-0.728088,-9.23999,-3.11831,-5.85938,-11.7798,34.1187
63.685,-0.57001,-9.21125,-2.99856,-6.65283,-12.8174,35.5835
63.69,-0.560435,-9.04838,-2.82612,-7.01904,-13.1836,37.9028
63.695,-0.455056,-9.24956,-2.71595,-7.38525,-13.1226,40.2222
63.7,-0.4311,-9.50822,-2.82134,-7.75146,-12.8784,43.1519
63.705,-0.383208,-9.6184,-3.04647,-7.38525,-12.3901,46.0815
63.71,-0.263448,-9.77647,-3.37219,-7.14111,-12.3291,48.8892
63.715,-0.282616,-9.67109,-3.62127,-6.95801,-12.2681,51.8799
63.72,-0.277819,-9.56091,-3.65001,-6.65283,-12.6343,54.6265
63.724,-0.249086,-9.69504,-3.72186,-6.34766,-13.0615,58.1665
63.729,-0.210758,-9.73336,-3.7506,-5.85938,-13.1836,62.0117
63.734,-0.201183,-9.78605,-3.86077,-5.37109,-12.6953,65.5518
63.739,-0.416729,-10.0303,-4.00447,-4.57764,-12.6953,69.0308
63.744,-0.541277,-10.1501,-4.426,-3.90625,-13.6719,72.2656
63.749,-0.728088,-10.0639,-4.86189,-3.90625,-15.5029,74.9512
63.754,-0.641868,-10.5429,-4.33978,-3.41797,-17.6392,77.8809
63.758,-1.06818,-10.6483,-3.59253,-1.15967,-19.4702,81.543
63.763,-1.24062,-10.9644,-3.31471,0.305176,-20.6299,83.6182
63.768,-1.12087,-11.726,-3.18538,1.58691,-21.9116,86.9751
63.773,-0.986749,-11.9512,-3.08478,3.17383,-22.583,90.7593
63.778,-0.876573,-11.8027,-3.04168,4.15039,-22.7051,93.689
63.783,-0.790352,-12.1523,-3.11353,4.45557,-23.1323,96.6186
63.788,-0.780778,-12.3248,-3.24765,4.88281,-23.8037,100.647
63.793,-0.723291,-12.5259,-3.3674,5.67627,-25.2686,104.309
63.798,-0.752035,-12.89,-3.53984,6.10351,-27.5269,107.605
63.803,-0.876573,-13.1822,-3.60211,7.01904,-30.1514,111.45
63.807,-0.82868,-13.5031,-3.62606,7.99561,-33.5083,114.807
63.812,-0.814308,-13.8815,-3.66917,8.72803,-37.2314,118.286
63.818,-0.728088,-14.212,-3.64522,9.58252,-40.9546,121.46
63.823,-0.65624,-14.5905,-3.5111,10.437,-44.1284,123.901
63.827,-0.728088,-15.0743,-3.32907,11.7798,-47.3633,126.892
63.833,-0.809521,-15.2275,-3.171,13.0005,-50.8423,129.7
63.838,-0.910103,-15.2227,-2.97462,13.9771,-54.9927,131.958
63.842,-0.752035,-15.2754,-2.85487,14.7095,-59.8144,134.094
63.847,-0.546064,-15.4143,-2.74948,15.5029,-64.7583,135.803
63.853,-0.732876,-15.7353,-2.80218,16.2354,-70.2515,138
63.858,-0.502959,-16.0083,-2.87403,17.395,-77.6367,140.503
63.862,0.411942,-16.2718,-3.28118,18.1885,-84.8389,142.639
63.868,1.31247,-16.5161,-3.66438,18.4326,-91.1865,144.775
63.873,2.0166,-16.746,-3.94699,18.4326,-96.8017,146.667
63.877,2.40939,-17.0669,-4.12422,17.9443,-103.394,149.78
63.882,2.6489,-17.4214,-4.33019,17.8223,-112.793,153.381
63.888,2.82134,-17.8142,-4.4739,17.5781,-124.207,156.494
63.893,3.01772,-18.2357,-4.01406,17.0898,-139.893,158.569
63.897,3.03209,-18.7003,-4.32541,17.0288,-151.611,162.598
63.902,3.3626,-18.6716,-4.20087,18.1274,-163.147,165.955
63.908,3.32429,-18.6764,-3.97094,17.5781,-174.499,169.373
63.912,2.54351,-18.3267,-3.85598,16.4185,-183.655,173.34
63.917,1.71962,-17.8142,-3.91825,14.6484,-190.186,177.063
63.923,1.64298,-17.4741,-3.78892,12.3901,-193.848,180.969
63.928,2.45729,-17.2346,-4.00926,9.21631,-193.603,184.875
63.932,3.6548,-16.4346,-4.24876,4.88281,-187.439,187.561
63.937,4.26313,-15.1605,-4.40684,-1.2207,-176.27,189.514
63.943,4.22481,-13.8241,-4.53138,-7.62939,-160.522,191.406
63.948,3.81287,-12.6122,-4.36372,-13.2446,-143.494,192.261
63.952,2.87403,-11.5536,-3.96615,-17.5781,-127.441,190.369
63.958,1.72921,-10.7057,-3.51588,-21.1182,-113.342,184.204
63.963,0.747247,-9.80521,-3.10874,-24.0479,-102.844,174.988
63.967,0.368836,-8.92384,-2.52915,-26.1841,-94.2383,162.964
63.972,0.253873,-8.32988,-2.31838,-28.4424,-88.1348,148.865
63.978,0.886157,-8.20534,-2.0166,-28.3813,-85.022,134.155
63.983,1.71484,-8.29156,-1.69568,-27.0996,-86.853,120.483
63.987,2.29922,-8.2724,-1.21667,-24.8413,-92.4683,110.535
63.993,2.18905,-7.89878,-0.704132,-23.2544,-99.9756,105.103
63.998,0.502959,-6.78749,-0.986749,-25.1465,-98.8159,102.6
64.002,-1.39869,-5.42232,-0.651443,-29.602,-95.459,95.6421
64.007,-3.62606,-3.91346,-0.407154,-35.2173,-95.8862,82.8857
64.012,-4.72777,-3.15185,-0.651443,-41.0767,-94.3603,67.627
64.017,-3.77934,-3.57337,-0.0574768,-44.0674,-98.7549,52.6733
64.022,-3.02731,-4.18171,1.18314,-40.3442,-107.727,38.5132
64.027,-1.93038,-5.07265,1.2023,-32.959,-108.826,26.7944
64.032,-1.42265,-2.6489,0.488587,-22.0947,-94.7876,-0.183105
64.036,-1.2502,-1.07776,-0.440685,-31.3721,-78.9185,-26.7944
64.041,1.67651,-2.10762,-0.340093,-40.9546,-60.3638,-34.8511
64.046,4.5218,-2.31838,-0.196396,-42.6636,-43.457,-46.6309
64.051,5.93965,-2.72074,-0.196396,-47.2412,-27.8931,-63.7207
64.056,6.70126,-3.09916,0.282616,-47.7295,-11.7187,-79.2236
64.061,6.61504,-2.7399,0.598753,-44.7998,1.15967,-92.7124
64.066,5.85343,-2.28963,0.771194,-44.3115,10.0098,-104.675
64.071,4.99122,-2.11241,0.938846,-46.4477,13.916,-114.685
64.076,4.24397,-2.11719,0.934059,-49.1333,13.6108,-123.657
64.08,3.57816,-2.36628,1.00591,-51.5137,15.625,-132.202
64.085,3.02251,-2.83091,1.2023,-52.124,19.8364,-140.259
64.09,2.5004,-3.10394,1.346,-50.415,21.7285,-148.682
64.095,2.13635,-3.14706,1.18793,-48.0347,20.4468,-157.043
64.1,2.08366,-3.39135,0.847839,-45.9595,18.6768,-165.833
64.105,1.97828,-3.67875,0.589179,-43.8232,17.8223,-175.659
64.11,1.89685,-4.02363,0.253873,-41.687,18.2495,-186.157
64.115,1.7771,-4.35415,-0.114963,-40.0391,18.9209,-196.045
64.119,1.71484,-4.7613,-0.440685,-38.0249,17.5781,-205.811
64.124,1.65735,-5.13493,-0.603541,-35.2783,14.6484,-215.698
64.129,1.62862,-5.45106,-0.756822,-32.5317,11.5356,-225.525
64.134,1.60946,-5.64266,-0.838255,-30.2734,8.97217,-234.619
64.139,1.61903,-5.87738,-0.847839,-28.5034,5.92041,-243.652
64.144,1.57113,-6.04982,-0.790352,-26.6113,2.13623,-252.808
64.149,1.5376,-6.31327,-0.771194,-24.7192,-1.83106,-260.986
64.153,1.44659,-6.66774,-0.761619,-22.7051,-6.10351,-268.738
64.158,1.35559,-6.95035,-0.555648,-20.752,-10.6812,-275.696
64.163,1.13524,-7.19943,-0.512533,-19.7754,-14.8926,-281.982
64.168,0.962802,-7.59221,-0.493374,-19.2871,-21.1792,-287.903
64.173,1.03465,-7.98978,-0.402367,-18.9819,-27.5269,-293.213
64.178,1.02028,-8.29156,-0.387995,-19.8364,-31.9824,-299.438
64.183,0.919687,-8.74662,-0.555648,-21.4844,-37.0483,-306.946
64.188,0.843052,-9.43638,-0.65624,-22.522,-44.1284,-314.27
64.193,0.752035,-10.1405,-0.728088,-23.2544,-51.9409,-320.984
64.198,0.708929,-10.7105,-0.747247,-24.1699,-58.96,-326.843
64.202,0.723291,-11.247,-0.632284,-25.0244,-64.5752,-332.336
64.208,0.804724,-11.5919,-0.507746,-25.9399,-69.7021,-337.524
64.213,0.771194,-11.7643,-0.737663,-28.5034,-73.4863,-341.736
64.217,0.593966,-12.1715,-0.890944,-32.8369,-75.4395,-345.215
64.222,0.201183,-12.8181,-1.01549,-35.9497,-78.6743,-349.365
64.228,-0.143697,-13.6851,-1.2981,-38.3911,-82.5195,-353.332
64.233,-0.440685,-14.7725,-1.57113,-41.687,-85.9985,-355.774
64.237,-0.627497,-15.6922,-1.59029,-44.4946,-88.3179,-357.361
64.243,-1.01069,-16.3628,-1.61425,-49.1333,-89.1113,-358.765
64.248,-1.58071,-17.0142,-1.86812,-54.5654,-90.5151,-359.924
64.252,-2.26569,-17.6705,-2.27527,-59.7534,-91.7358,-360.107
64.257,-3.10394,-18.2932,-2.67763,-64.8804,-91.0644,-359.436
64.263,-4.36372,-18.9063,-3.04168,-70.3125,-88.501,-358.154
64.268,-5.91091,-19.5913,-3.3626,-75.7446,-85.7544,-356.75
64.272,-7.27128,-20.1756,-3.559,-80.6885,-83.4351,-355.103
64.277,-8.13828,-20.7026,-3.69791,-85.4492,-81.543,-352.783
64.283,-8.63165,-21.2821,-3.7027,-89.6606,-79.7729,-348.938
64.287,-9.07234,-21.9911,-3.34344,-92.7734,-77.6367,-341.614
64.292,-9.77647,-22.5132,-2.56267,-94.6655,-75.1343,-330.627
64.298,-10.1693,-22.6856,-1.49449,-96.3135,-72.8149,-316.223
64.303,-10.6243,-22.4126,-0.426313,-97.0459,-67.1997,-298.462
64.307,-12.2146,-21.8282,0.924475,-94.3603,-60.4858,-281.86
64.312,-13.9869,-21.5695,2.09804,-88.8672,-58.5327,-266.602
64.318,-14.7437,-23.0018,1.89206,-85.4492,-61.6455,-248.474
64.323,-15.7209,-20.5397,3.90388,-75.7446,-62.0727,-227.661
64.327,-17.3447,-18.8201,4.34935,-64.9414,-56.7017,-201.599
64.333,-18.8009,-18.8153,3.08,-56.6406,-53.1616,-175.842
64.338,-19.9409,-18.868,2.20341,-48.7061,-52.3682,-154.114
64.342,-20.851,-18.9781,1.67651,-42.3584,-54.9927,-129.15
64.347,-21.5648,-18.0584,1.346,-37.2314,-56.8237,-101.807
64.353,-21.8282,-17.316,0.88137,-32.4707,-54.9927,-75.1953
64.358,-21.5121,-17.1388,0.383208,-28.5645,-51.2695,-47.3633
64.362,-20.9468,-16.2095,0.287404,-24.1699,-44.0063,-17.5781
64.368,-20.0128,-15.1605,0.411942,-19.8975,-33.3862,13.2446
64.373,-18.6333,-14.5378,0.752035,-13.916,-19.7144,43.2739
64.377,-17.0717,-14.6096,1.37474,-6.16455,-2.68555,71.4111
64.382,-14.6671,-15.0695,2.43813,3.479,15.5029,96.4966
64.388,-8.53106,-14.4563,2.36149,13.1226,34.6069,114.868
64.393,3.63085,-12.6361,-1.07297,10.3149,53.2837,115.723
64.397,16.9855,-12.1475,-1.93038,-0.244141,67.3828,92.9565
64.402,25.2148,-12.8804,1.49449,-4.02832,62.1948,64.209
64.407,28.0888,-12.229,5.64746,0.427246,53.5889,57.5561
64.412,25.8566,-9.26872,8.05206,8.23975,65.4907,72.1436
64.417,16.4107,-6.70126,7.63532,10.3149,98.5107,84.1064
64.422,6.28932,-7.89399,5.51813,4.5166,133.545,88.0127
64.427,1.52323,-11.6542,3.96615,-0.488281,153.076,95.3369
64.431,-1.12566,-15.6586,3.86556,-1.70898,156.677,109.558
64.436,-3.59732,-18.2884,3.95657,-2.38037,145.691,125.122
64.441,-4.78046,-18.4369,3.13269,-4.69971,125.427,135.559
64.446,-4.69903,-16.4298,1.21667,-8.72803,101.318,136.108
64.451,-3.93741,-14.1594,-1.19751,-15.5029,80.3223,130.066
64.456,-3.10874,-12.8229,-2.41897,-22.2778,69.5801,124.451
64.461,-2.39023,-12.32,-2.47645,-24.9634,66.8945,121.765
64.466,-1.85853,-10.8878,-2.13635,-24.9023,64.4531,119.812
64.471,-1.00591,-9.22562,-2.33754,-24.1699,59.5703,116.76
64.475,0.00958437,-8.24844,-3.13747,-22.8271,50.293,112.305
64.48,1.12566,-7.49641,-4.48827,-21.6064,40.2222,107.666
64.485,1.51365,-6.70606,-5.83906,-20.5078,34.729,103.577
64.49,0.996333,-6.45218,-6.62462,-19.4092,32.5928,100.647
64.495,0.292191,-6.88328,-6.79228,-16.7236,30.2124,99.0601
64.5,-0.340093,-7.49162,-6.55278,-12.3901,26.6113,97.5342
64.505,-0.335306,-8.03769,-5.59956,-7.32422,21.6064,95.0928
64.509,-0.498162,-8.57417,-4.4739,-2.38037,16.9067,92.7734
64.514,-0.843052,-9.25435,-3.82724,0.854492,11.4136,91.0644
64.519,-0.584382,-9.62319,-3.65001,3.23486,2.56348,89.5386
64.524,0.0479022,-10.2651,-3.3674,6.22558,-10.7422,88.9892
64.529,0.713717,-10.4614,-2.84528,9.0332,-22.7661,90.1489
64.534,0.847839,-9.54176,-3.16622,8.05664,-25.9399,89.0503
64.539,0.804724,-8.73703,-3.56858,5.18799,-23.5596,85.9375
64.544,0.488587,-8.81368,-3.32907,3.66211,-17.7002,85.4492
64.548,-0.177227,-9.09628,-2.87881,2.38037,-9.15527,84.0454
64.553,-0.876573,-9.39327,-2.51477,-0.12207,-0.671387,82.3975
64.558,-0.958005,-9.73336,-2.38544,-2.62451,3.23486,80.5054
64.563,-0.895741,-9.81479,-2.33754,-4.27246,3.60107,78.2471
64.568,-1.00591,-9.71899,-2.21779,-5.24902,3.17383,75.8057
64.573,-1.23583,-9.63277,-2.13635,-6.22558,4.5166,73.4863
64.578,-1.55676,-9.63756,-2.17468,-6.5918,7.56836,71.9604
64.583,-1.81063,-9.79084,-2.25132,-6.28662,8.60596,70.2515
64.588,-1.25499,-9.72857,-2.27048,-6.46973,7.01904,67.9932
64.592,0.0479022,-9.422,-2.52915,-7.56836,6.04248,65.6738
64.597,0.723291,-9.11544,-2.75906,-8.8501,8.42285,63.9038
64.603,0.541277,-8.91426,-3.02251,-8.78906,9.76562,62.2559
64.608,0.0862201,-8.89031,-3.20932,-7.20215,8.48389,61.7065
64.612,-0.34488,-9.01485,-3.25244,-5.61523,7.20215,61.7676
64.618,-0.637071,-9.11544,-3.4153,-4.45557,7.14111,61.7676
64.623,-0.560435,-9.1825,-3.5111,-3.2959,6.83594,60.9741
64.627,-0.402367,-9.07234,-3.66438,-2.2583,5.61523,59.5093
64.632,-0.522118,-9.03401,-3.77934,-0.976562,3.17383,57.9224
64.638,-0.450259,-9.1346,-3.69791,0.793457,-1.15967,56.5186
64.643,0.0574768,-9.07712,-3.49194,1.95312,-4.27246,54.6265
64.647,0.330509,-8.93343,-3.47278,2.68555,-4.27246,52.8564
64.652,0.268245,-8.88073,-3.23328,3.41797,-3.90625,51.5137
64.658,-0.0239462,-8.90468,-3.16143,4.08936,-3.17383,50.7812
64.662,-0.464631,-9.05797,-3.08478,4.63867,-3.2959,50.2319
64.667,-0.929272,-9.26394,-2.79259,4.82178,-4.21143,49.4385
64.673,-1.10171,-9.3741,-2.59141,4.45557,-5.7373,48.0957
64.678,-1.04423,-9.35494,-2.49561,3.84522,-7.14111,46.2646
64.682,-0.929272,-9.38369,-2.47166,2.86865,-8.48389,44.7388
64.687,-0.79515,-9.43159,-2.50519,2.13623,-9.70459,43.457
64.693,-0.689771,-9.4268,-2.63452,1.46484,-10.2539,42.1753
64.698,-0.536489,-9.40285,-2.74948,0.732422,-9.94873,40.7715
64.702,-0.488587,-9.43159,-2.8884,0.061035,-9.82666,39.856
64.708,-0.368836,-9.40763,-3.04647,-0.488281,-9.8877,39.0015
64.713,-0.325721,-9.28788,-3.14706,-0.854492,-9.8877,38.269
64.717,-0.407154,-9.16334,-3.21891,-0.976562,-10.437,37.7197
64.722,-0.507746,-9.08671,-3.20932,-1.15967,-10.9253,37.1094
64.728,-0.555648,-8.9909,-3.16143,-1.40381,-11.3525,36.8652
64.733,-0.440685,-8.97175,-3.11353,-1.77002,-11.8408,36.7432
64.737,-0.459844,-8.97175,-3.01772,-2.01416,-11.2305,36.7432
64.743,-0.383208,-8.99569,-3.01294,-2.13623,-10.437,36.3159
64.748,-0.392783,-9.00528,-2.98899,-2.62451,-9.15527,36.0718
64.752,-0.526905,-9.07234,-2.97462,-2.80762,-8.66699,35.8276
64.757,-0.550851,-9.26394,-3.06563,-2.92969,-8.91113,36.1938
64.763,-0.450259,-9.32621,-3.18059,-2.99072,-9.94873,36.3159
64.768,-0.253873,-9.31184,-3.20932,-2.99072,-11.6577,36.3159
64.772,-0.316147,-9.39327,-3.25244,-2.99072,-12.6343,36.377
64.777,-0.613125,-9.30225,-3.18059,-3.35693,-12.8174,36.1938
64.783,-0.775991,-9.25435,-2.94587,-3.72314,-12.9395,36.0718
64.787,-0.862211,-9.20646,-2.76385,-4.39453,-12.6343,35.9497
64.792,-0.943634,-9.20646,-2.6441,-5.00488,-11.4746,35.7666
64.797,-1.09691,-9.25915,-2.5962,-5.61523,-10.1318,35.7056
64.802,-1.14961,-9.30225,-2.65847,-6.16455,-9.09424,35.5225
64.807,-1.14003,-9.16813,-2.83091,-6.5918,-8.60596,35.5225
64.812,-0.953218,-9.11065,-3.11353,-7.14111,-8.78906,35.5835
64.817,-0.838255,-9.26394,-3.28118,-7.01904,-9.94873,35.8887
64.822,-0.943634,-9.4268,-3.40572,-6.40869,-11.9019,36.1938
64.826,-1.19751,-9.58487,-3.42009,-5.49316,-14.4653,36.499
64.831,-1.19272,-9.53697,-3.2716,-4.94385,-16.6016,36.3159
64.836,-1.00591,-9.32141,-3.26681,-4.5166,-18.0054,36.6211
64.841,-0.929272,-9.39806,-3.42009,-4.3335,-18.8599,36.7432
64.846,-1.2023,-9.46032,-3.51588,-4.21143,-19.4092,37.1704
64.851,-1.26936,-9.26394,-3.34344,-4.15039,-20.5688,37.5366
64.856,-1.31726,-9.0915,-3.23328,-4.5166,-21.9116,38.0859
64.861,-1.3939,-9.14419,-3.08478,-4.69971,-23.3765,39.2456
64.866,-1.29331,-9.27831,-2.99856,-4.69971,-25.4517,41.0156
64.87,-1.0586,-9.331,-2.99856,-4.94385,-27.0996,42.7246
64.875,-0.79515,-9.54655,-3.05125,-5.24902,-28.4424,45.0439
64.88,-0.646656,-9.60882,-3.23328,-5.5542,-29.541,48.1567
64.885,-0.584382,-9.48428,-3.35782,-5.43213,-30.9448,51.2695
64.89,-0.167653,-9.70941,-3.23807,-4.88281,-31.6772,54.0771
64.895,-0.0910074,-9.86748,-3.19975,-4.27246,-30.5786,58.3496
64.9,-0.17244,-10.1261,-3.35782,-3.60107,-28.7476,62.439
64.904,-0.220342,-10.4231,-3.39135,-2.44141,-27.2217,66.5283
64.909,-0.555648,-10.3752,-3.26202,-1.2207,-26.7334,70.6177
64.914,-0.799937,-10.6004,-3.21891,-0.427246,-26.7334,73.9136
64.919,-0.780778,-10.7249,-3.08478,0.366211,-27.2217,77.1484
64.924,-0.761619,-10.9165,-2.96025,1.58691,-27.71,80.1392
64.929,-0.96759,-11.3668,-2.99378,3.11279,-28.2593,84.2285
64.934,-1.21188,-11.9128,-3.04168,5.49316,-32.0435,87.0972
64.939,-0.938846,-12.5738,-3.46319,7.26318,-33.1421,91.2476
64.944,-0.22513,-12.775,-3.45841,8.72803,-32.4707,95.9473
64.948,-0.0670612,-12.8948,-3.44883,8.54492,-32.959,99.7925
64.953,-0.34488,-12.8804,-3.23328,8.36182,-33.6304,104.248
64.958,-0.421526,-13.1008,-3.05125,8.11768,-34.668,108.765
64.963,-0.507746,-13.3546,-2.89318,7.93457,-36.499,113.525
64.968,-0.550851,-13.8384,-3.03209,7.87354,-38.6963,118.835
64.973,-0.253873,-14.0636,-3.14227,7.87354,-41.1377,123.535
64.978,-0.100592,-14.2168,-3.33387,7.56836,-42.7856,128.174
64.983,0.0431149,-14.2647,-3.47757,7.8125,-44.6777,132.141
64.987,-0.210758,-14.3845,-3.54941,7.62939,-47.3022,136.719
