t,acc_x,acc_y,acc_z,gyr_x,gyr_y,gyr_z
55.001,0.712865,-7.95878,5.18646,5.31604,-34.7987,6.36358
55.006,0.666805,-7.99219,5.14233,6.01732,-34.7165,5.76815
55.012,0.659037,-7.981,5.13571,6.83942,-34.3791,5.46285
55.016,0.688334,-8.00789,5.07664,7.66582,-33.633,5.18147
55.022,0.710206,-8.02641,5.09591,8.41039,-32.9138,4.90639
55.026,0.712848,-8.06548,5.10298,8.76932,-32.1346,4.6108
55.032,0.719454,-8.08113,5.0757,9.61616,-31.1268,4.52727
55.036,0.742359,-8.09767,5.02429,10.7316,-29.8443,4.37261
55.042,0.775228,-8.09233,4.96357,11.8495,-28.108,4.40851
55.047,0.769872,-8.10667,4.87967,12.8104,-25.903,4.40559
55.052,0.778601,-8.08745,4.84301,13.448,-23.5555,4.36058
55.057,0.768664,-8.062,4.77638,14.0228,-21.1094,4.51178
55.061,0.74568,-8.07036,4.81347,14.3908,-18.6742,4.88715
55.067,0.717989,-8.10296,4.82546,14.6547,-16.4826,5.23762
55.071,0.721959,-8.11445,4.87422,14.8915,-14.7352,5.70764
55.077,0.717197,-8.17182,4.93876,14.9353,-13.5995,6.38521
55.081,0.699632,-8.22094,5.01146,15.2202,-12.7919,7.01992
55.087,0.71128,-8.2952,5.03162,15.6255,-12.2278,7.58757
55.092,0.633333,-8.36513,5.06715,16.0487,-11.8557,8.16247
55.096,0.650507,-8.38122,5.08221,16.4473,-11.814,8.78157
55.102,0.657748,-8.4601,5.072,16.4775,-11.8819,9.47085
55.106,0.716642,-8.59074,5.09387,16.3848,-12.1601,10.0366
55.112,0.662953,-8.77879,5.12646,16.1495,-12.4116,10.6382
55.116,0.60399,-8.95627,5.08947,15.9124,-12.958,11.1406
55.122,0.636439,-9.11684,5.1507,15.5706,-13.9067,11.5268
55.126,0.613794,-9.26142,5.1684,15.3677,-15.1321,11.9446
55.131,0.579619,-9.40928,5.20791,15.0996,-16.7127,12.368
55.137,0.569465,-9.54088,5.25733,14.8701,-18.5635,12.7306
55.141,0.522033,-9.72323,5.30249,14.6186,-20.8123,12.8874
55.147,0.530966,-9.8716,5.34262,14.3439,-23.2552,13.0964
55.151,0.562519,-10.0295,5.3575,14.3517,-26.0241,13.2176
55.157,0.578998,-10.1571,5.44473,13.9757,-28.778,13.1517
55.161,0.56279,-10.3611,5.52417,13.6805,-31.4827,13.1628
55.167,0.598425,-10.5073,5.59557,13.3453,-34.3931,12.9607
55.172,0.63504,-10.6497,5.60283,13.0934,-36.8006,13.0263
55.177,0.631661,-10.8146,5.59817,12.9713,-38.6565,12.9891
55.182,0.628958,-10.9503,5.68035,12.8111,-40.4234,12.8382
55.187,0.64075,-11.0548,5.66657,12.474,-41.8244,12.5418
55.192,0.649834,-11.2067,5.69362,11.9804,-42.598,12.2979
55.197,0.635422,-11.3464,5.69958,11.3869,-43.2064,12.053
55.202,0.638557,-11.4985,5.69505,10.8957,-43.5262,11.9997
55.207,0.626818,-11.679,5.70151,10.3831,-43.7454,12.0977
55.212,0.582685,-11.8221,5.77119,9.87382,-43.8732,12.0371
55.217,0.504721,-11.9394,5.88265,9.8548,-43.6587,12.1131
55.223,0.433736,-12.0011,5.99675,10.1596,-43.4281,12.3225
55.228,0.377286,-11.9392,6.08464,10.5244,-43.2285,12.5857
55.233,0.319609,-11.8532,6.16605,11.2473,-43.0119,13.4295
55.238,0.254739,-11.7167,6.23025,12.2965,-42.6655,14.3313
55.243,0.122148,-11.5596,6.24602,13.6257,-42.4188,15.4868
55.248,0.0962689,-11.3679,6.30976,15.1152,-42.2096,16.7882
55.253,0.0379481,-11.2246,6.25643,16.6804,-41.9974,18.492
55.258,-0.0649132,-11.0783,6.19475,18.4065,-41.6641,20.4332
55.264,-0.110036,-10.913,6.12858,20.2351,-41.2233,22.3913
55.269,-0.122134,-10.7933,6.06457,22.0586,-40.829,24.6748
55.274,-0.08241,-10.6548,5.96451,24.0424,-40.4722,27.1042
55.279,-0.123637,-10.491,5.84969,26.41,-40.1304,29.7209
55.284,-0.0969734,-10.3514,5.77024,28.6734,-40.0321,32.3127
55.289,-0.0359917,-10.1824,5.65867,30.9939,-39.8975,35.2082
55.294,0.0292267,-10.0445,5.56254,33.4752,-39.9816,38.0752
55.3,0.0453372,-9.87782,5.46163,35.7107,-40.305,40.8699
55.305,0.0754543,-9.68997,5.40075,38.1082,-40.7109,43.6439
55.31,0.0617322,-9.52323,5.37667,40.3427,-41.3518,46.256
55.315,0.0777566,-9.38966,5.36537,42.4378,-41.8747,48.7452
55.32,0.0613677,-9.32541,5.33382,44.5552,-42.5207,50.9997
55.325,0.048709,-9.34738,5.30804,46.5813,-42.864,52.7693
55.33,0.0730004,-9.3381,5.29176,48.5497,-43.0625,54.4096
55.335,0.0719434,-9.33185,5.2585,50.0749,-43.3962,55.6344
55.341,0.0584448,-9.40021,5.25573,51.7066,-43.7124,56.5427
55.346,0.0562703,-9.47421,5.23708,53.2793,-44.0199,57.3139
55.351,0.104571,-9.59022,5.23033,54.5523,-44.172,57.8163
55.356,0.189391,-9.75859,5.19601,55.2604,-44.012,58.2282
55.361,0.198237,-9.897,5.13874,56.0388,-43.7906,58.0431
55.366,0.190217,-10.0613,5.12332,56.6741,-44.0411,57.5367
55.371,0.202528,-10.2396,5.12597,57.4919,-44.4523,56.9416
55.376,0.247981,-10.3995,5.17312,58.516,-45.0113,56.031
55.381,0.241638,-10.5717,5.14584,59.4574,-45.9146,54.9442
55.387,0.262487,-10.6723,5.17319,60.4183,-46.8738,53.8726
55.391,0.29675,-10.7701,5.15438,61.3434,-47.63,52.6118
55.397,0.288545,-10.8551,5.10353,62.1692,-48.4024,51.1754
55.401,0.260929,-10.9161,5.08811,63.0411,-48.9449,49.5435
55.407,0.253338,-10.9227,5.0547,63.6476,-49.3311,48.0899
55.411,0.233882,-10.8889,4.99275,64.178,-49.5392,46.4085
55.417,0.192843,-10.8926,4.9547,64.8691,-49.626,44.9644
55.422,0.119458,-10.8259,4.89025,65.2322,-49.7979,43.629
55.427,0.0702136,-10.7463,4.82261,65.5577,-49.7219,42.2711
55.432,0.0289738,-10.7099,4.72112,65.9403,-49.6096,41.2169
55.436,0.0408584,-10.6272,4.62526,66.2416,-49.3654,40.2604
55.442,0.020116,-10.5077,4.49457,66.5815,-49.0516,39.5089
55.446,-0.0369017,-10.4169,4.42031,66.512,-48.6909,38.9638
55.452,-0.0538324,-10.3321,4.33057,66.5656,-47.9612,38.6335
55.456,-0.0330573,-10.2419,4.28892,66.7833,-47.3589,38.1158
55.462,-0.00711007,-10.1114,4.25402,67.0219,-46.3364,37.8872
55.467,-0.0137043,-9.9683,4.26796,67.2539,-45.4963,37.9763
55.471,-0.016537,-9.84995,4.22548,67.4803,-44.8614,38.2992
55.477,-0.00520393,-9.71396,4.20997,67.6653,-44.2285,38.667
55.481,-0.0032356,-9.56064,4.19318,67.8461,-43.6644,39.2768
55.487,0.0450793,-9.43431,4.15263,67.8,-43.2143,40.0042
55.491,0.110903,-9.31866,4.10813,67.7991,-42.512,40.6194
55.497,0.13313,-9.17771,4.11597,67.6309,-41.7734,41.5806
55.501,0.118424,-9.04133,4.13514,67.7272,-41.1689,42.4468
55.506,0.110067,-8.92777,4.1395,67.8029,-40.4859,43.3809
55.512,0.122147,-8.75607,4.10032,67.5714,-39.8076,44.4471
55.516,0.172724,-8.62509,4.01644,67.2368,-39.0553,45.6708
55.522,0.163428,-8.49459,3.98813,66.8067,-38.0691,46.6517
55.526,0.136466,-8.37654,3.95599,66.297,-36.9959,47.5634
55.532,0.141536,-8.27287,3.90702,65.5034,-36.0731,48.289
55.536,0.0793446,-8.18153,3.86064,65.0142,-35.0782,49.1327
55.542,0.0542536,-8.11582,3.76894,64.4455,-34.3364,49.6414
55.547,0.0675901,-8.00901,3.7017,64.0591,-33.5741,50.2361
55.552,0.0438033,-7.94239,3.63083,63.4913,-32.8548,50.6615
55.557,0.0263643,-7.8719,3.566,62.7828,-32.1537,50.9561
55.561,-0.0203964,-7.78697,3.55308,61.9782,-31.3774,50.9164
55.567,-0.0625035,-7.7436,3.51635,61.2929,-30.8219,50.893
55.571,-0.0700195,-7.63699,3.45593,60.7537,-30.202,50.675
55.577,-0.060804,-7.53587,3.4498,59.9034,-29.8366,50.6562
55.581,-0.0983166,-7.50564,3.41667,58.9709,-29.6567,50.5525
55.587,-0.0647412,-7.39702,3.38773,58.1025,-29.4391,50.2605
55.592,-0.0654595,-7.332,3.37722,57.2936,-29.4115,49.9309
55.597,-0.0833639,-7.35163,3.38581,56.2607,-29.565,49.4691
55.602,-0.0956075,-7.31661,3.37622,55.3496,-29.8259,48.948
55.607,-0.0685276,-7.26167,3.31259,54.3784,-30.0556,48.3732
55.612,-0.0501768,-7.25263,3.26475,53.2489,-30.2927,47.4857
55.617,-0.00819736,-7.21843,3.2595,52.0809,-30.2595,46.6589
55.623,-0.0175718,-7.22776,3.23736,50.7884,-30.3917,45.8754
55.628,0.0230974,-7.24783,3.16955,49.3996,-30.4486,44.7574
55.633,0.0348867,-7.21069,3.15615,47.7475,-30.394,43.6512
55.638,0.0701199,-7.18399,3.1704,45.994,-30.3104,42.536
55.643,0.0737363,-7.16596,3.15505,44.1226,-30.2097,41.1467
55.648,0.0785478,-7.18439,3.13903,42.228,-29.9632,40.0754
55.653,0.134342,-7.17713,3.15173,40.175,-29.7242,38.6914
55.658,0.166206,-7.18798,3.14799,37.858,-29.5324,37.2277
55.664,0.216785,-7.1926,3.18139,35.54,-29.3181,35.8474
55.669,0.253466,-7.1952,3.1825,33.0642,-28.9526,34.2457
55.674,0.256232,-7.22357,3.19019,30.594,-28.382,32.4099
55.679,0.249774,-7.23813,3.18352,28.043,-27.8607,30.4971
55.684,0.274292,-7.23415,3.14764,25.3089,-26.9974,28.8476
55.689,0.241416,-7.26618,3.18748,22.4949,-26.206,27.0378
55.694,0.28374,-7.31483,3.20459,19.4969,-25.3901,25.3087
55.699,0.283899,-7.43329,3.212,16.2977,-24.72,23.3037
55.705,0.307934,-7.57278,3.2078,13.0548,-24.1658,21.4189
55.71,0.329773,-7.74537,3.21952,9.89181,-23.8797,19.4286
55.715,0.375539,-7.89986,3.24768,6.82913,-23.6,17.5305
55.72,0.474866,-8.06596,3.31818,3.68513,-23.5285,15.4642
55.725,0.495773,-8.33654,3.31773,0.398946,-23.6113,13.259
55.73,0.547027,-8.56024,3.3541,-2.95052,-23.7544,11.1589
55.735,0.584119,-8.80975,3.46744,-6.38172,-23.9243,9.06495
55.74,0.642764,-9.11583,3.48052,-9.89519,-24.2798,6.88618
55.745,0.741831,-9.43072,3.56307,-13.2665,-24.8208,4.58008
55.751,0.760551,-9.65436,3.64116,-16.5361,-25.2319,2.37437
55.756,0.81963,-9.89098,3.6776,-19.4828,-25.6044,0.385245
55.761,0.897403,-10.0539,3.80662,-22.5483,-25.9371,-1.79464
55.766,0.94364,-10.2539,3.87864,-26.1264,-26.1491,-3.61063
55.771,1.01231,-10.4598,3.93848,-29.6074,-26.4588,-5.17556
55.776,1.07088,-10.6574,4.04156,-33.0889,-26.5873,-6.56589
55.781,1.08276,-10.7985,4.10434,-36.1491,-26.9785,-7.74652
55.786,1.12985,-10.8639,4.11197,-38.6795,-27.3202,-8.93454
55.792,1.13966,-10.8384,4.11575,-41.333,-27.6909,-10.0714
55.797,1.16215,-10.8052,4.13159,-44.1734,-27.9696,-10.8776
55.802,1.16181,-10.8106,4.1506,-47.4271,-28.4514,-11.41
55.807,1.22362,-10.9057,4.22253,-51.0263,-29.0073,-12.0159
55.811,1.26435,-11.0364,4.28634,-54.6117,-29.824,-12.3723
55.817,1.28276,-11.2263,4.41145,-58.3678,-31.0357,-12.49
55.821,1.39678,-11.4346,4.53908,-61.7853,-32.8545,-12.5742
55.827,1.45751,-11.6464,4.70216,-64.9459,-34.9673,-12.3527
55.831,1.50526,-11.8099,4.80997,-67.4775,-37.3544,-12.2289
55.837,1.60452,-11.8142,5.01222,-69.8135,-40.1406,-11.8611
55.842,1.6784,-11.7865,5.11436,-72.1324,-43.0963,-11.4028
55.846,1.73585,-11.767,5.24657,-74.4156,-46.2549,-10.7552
55.852,1.74772,-11.8014,5.39281,-77.0036,-49.6441,-10.3169
55.856,1.8432,-11.8386,5.49864,-79.838,-53.0914,-9.7764
55.862,1.88469,-11.8804,5.58054,-82.3745,-56.6494,-8.80029
55.866,1.9209,-11.8315,5.65545,-84.5811,-60.1673,-8.09957
55.872,1.95143,-11.7572,5.81118,-86.948,-63.6477,-7.5448
55.876,1.94937,-11.6462,5.93208,-89.2587,-67.0693,-6.60309
55.881,1.96357,-11.4685,6.08428,-91.208,-70.7226,-5.50529
55.887,1.93975,-11.2483,6.24914,-93.0356,-74.4829,-4.46655
55.891,1.9252,-10.9554,6.38046,-94.4998,-78.18,-3.17268
55.897,1.87326,-10.5683,6.52101,-95.5644,-81.8579,-1.34308
55.901,1.84824,-10.17,6.68692,-96.2259,-85.9465,0.423076
55.907,1.78625,-9.8296,6.82244,-96.437,-89.5585,2.37871
55.911,1.72384,-9.45796,6.9004,-96.4023,-92.9314,4.40668
55.917,1.66945,-9.10283,6.96536,-95.9172,-95.8278,6.62407
55.922,1.64037,-8.71574,6.84657,-95.066,-98.0485,9.3786
55.927,1.55238,-8.38696,6.78144,-93.7564,-99.474,12.0131
55.932,1.53887,-8.0365,6.66218,-91.9504,-100.193,14.6416
55.936,1.52266,-7.71278,6.48694,-90.0564,-100.182,17.3868
55.942,1.56405,-7.46726,6.35452,-88.0744,-99.7805,19.983
55.946,1.57696,-7.2943,6.14661,-85.6742,-98.7893,22.246
55.952,1.56733,-7.16697,5.91569,-82.3732,-97.1854,24.6221
55.956,1.57717,-6.98525,5.70539,-79.2065,-95.0771,26.8159
55.962,1.64132,-6.89437,5.53423,-76.0712,-92.6972,28.5784
55.967,1.77751,-6.9103,5.37868,-73.1217,-90.2479,30.5883
55.971,1.78811,-7.02944,5.10221,-69.7242,-87.1723,31.6297
55.977,1.82469,-7.07317,4.74252,-65.5326,-82.7166,32.3077
55.981,1.90053,-7.12413,4.5361,-61.8654,-77.5843,33.1995
55.987,1.94484,-7.22043,4.37664,-58.9369,-72.023,33.4307
55.992,2.0069,-7.39427,4.25583,-56.426,-66.2887,33.119
55.997,2.08758,-7.64839,4.22005,-54.0744,-60.5394,32.5778
56.002,2.16487,-7.9525,4.15912,-51.3249,-54.4625,31.5058
56.007,2.24118,-8.27882,4.03751,-47.9773,-48.2295,29.9959
56.012,2.35108,-8.58474,3.92832,-44.4093,-41.4616,27.7184
56.017,2.37298,-8.89248,3.82916,-40.6073,-34.2387,25.0973
56.022,2.30536,-9.17694,3.64202,-36.8934,-26.6218,21.8324
56.027,2.2675,-9.41295,3.53686,-33.0461,-18.5432,18.1316
56.033,2.21321,-9.60534,3.49694,-29.3486,-9.99455,13.8998
56.038,2.04296,-9.86595,3.4706,-25.8337,-1.62503,9.49082
56.043,1.91067,-10.034,3.54251,-22.7097,5.73828,4.589
56.048,1.72361,-10.1398,3.58648,-19.3652,12.5118,-0.553598
56.053,1.67849,-10.225,3.65809,-15.5612,18.9336,-5.37262
56.058,1.6687,-10.2772,3.63347,-11.3297,25.4563,-10.1246
56.063,1.64988,-10.214,3.65832,-7.42393,32.0078,-14.8434
56.068,1.54921,-10.1969,3.67712,-4.10727,38.6995,-19.5172
56.074,1.46641,-10.1008,3.84673,-1.06619,45.3787,-24.8612
56.079,1.50323,-9.90596,3.99456,2.00723,52.5483,-30.6502
56.084,1.57428,-9.58572,4.19314,4.99799,60.0535,-36.0836
56.089,1.69506,-9.27729,4.47617,7.09914,67.7722,-40.3329
56.094,1.60447,-9.01417,4.65325,7.649,74.9895,-43.2126
56.099,1.36397,-8.85154,4.96101,7.18446,80.9717,-44.4295
56.104,1.11845,-8.67941,5.29071,7.12957,84.9978,-44.5329
56.109,0.856302,-8.42352,5.6222,7.64839,86.6005,-43.9759
56.115,0.620443,-8.18752,5.88566,8.11414,86.5077,-42.4704
56.12,0.453573,-8.02669,5.8439,8.69052,84.773,-40.0289
56.125,0.312844,-7.90291,5.844,9.12087,82.2939,-37.9247
56.13,0.528236,-7.65949,5.82636,9.24276,81.4021,-37.1909
56.135,0.749231,-7.39233,5.65854,8.71307,82.0324,-36.6517
56.14,0.748357,-7.26222,5.59887,7.01336,83.1571,-35.0073
56.145,0.628106,-7.23614,5.54136,4.27712,83.4335,-32.6986
56.151,0.367103,-7.16854,5.64298,2.35504,81.9241,-30.3908
56.156,0.20128,-7.06131,5.71042,1.35991,78.2254,-27.7501
56.161,0.170846,-6.96482,5.68054,0.854679,73.246,-24.8029
56.166,0.207279,-6.86564,5.55596,0.0195072,68.2264,-21.5805
56.171,0.303618,-6.82756,5.438,-1.60787,63.5862,-18.1565
56.176,0.351575,-6.80734,5.45063,-3.77408,59.3847,-15.1251
56.181,0.400024,-6.79348,5.53514,-6.03973,55.5071,-12.0033
56.186,0.411475,-6.89734,5.65802,-8.00152,51.2027,-9.1207
56.192,0.375402,-7.00534,5.74991,-9.60334,46.1907,-6.35599
56.196,0.394195,-7.25744,5.80059,-10.6459,40.3217,-3.5326
56.202,0.355387,-7.36974,5.74624,-10.9952,34.216,-0.995217
56.206,0.31826,-7.44259,5.6041,-10.7402,28.6302,0.961708
56.212,0.263757,-7.52074,5.44563,-10.8039,23.4144,2.72579
56.217,0.208501,-7.58124,5.35258,-11.1619,18.7405,4.16156
56.221,0.186147,-7.6713,5.28191,-11.3894,14.2557,5.14541
56.227,0.142741,-7.79715,5.20309,-12.0247,9.95389,6.34358
56.231,0.0638411,-7.98352,5.10163,-12.78,5.71445,7.4341
56.237,-0.00448368,-8.09031,5.10511,-13.1815,1.52797,8.02261
56.241,-0.0445298,-8.26688,5.08564,-13.3534,-2.61207,8.24357
56.247,-0.0643035,-8.36755,5.04942,-13.4174,-6.59848,8.15599
56.251,-0.0541867,-8.49078,5.02666,-13.337,-10.3167,8.13188
56.256,-0.0286906,-8.57954,5.07193,-13.3126,-13.7537,7.98653
56.262,0.00192152,-8.6671,5.0959,-13.5455,-16.7156,7.71006
56.266,0.12782,-8.68588,5.21115,-13.8184,-19.5435,7.48647
56.272,0.254003,-8.76506,5.25849,-13.8477,-22.2458,7.41047
56.276,0.378663,-8.78654,5.34637,-13.7335,-24.6573,7.48119
56.282,0.440099,-8.77198,5.41683,-13.478,-26.892,7.77406
56.286,0.477803,-8.73993,5.48577,-13.0798,-29.1534,8.03099
56.291,0.569149,-8.70056,5.49373,-12.8828,-31.2207,8.27805
56.297,0.613973,-8.69651,5.48964,-12.5822,-32.8631,8.72455
56.302,0.676709,-8.64613,5.49779,-12.0941,-34.099,9.19757
56.307,0.65367,-8.57869,5.48636,-11.8686,-35.246,9.59899
56.311,0.623586,-8.5035,5.41661,-11.704,-35.9994,10.2959
56.317,0.62996,-8.39891,5.38847,-11.4175,-36.52,11.1994
56.321,0.680964,-8.29919,5.36214,-11.2895,-36.7082,12.0564
56.327,0.697822,-8.24663,5.34113,-11.324,-36.9725,12.8425
56.331,0.658988,-8.23801,5.38398,-11.6034,-37.1587,13.739
56.337,0.694445,-8.27817,5.44082,-12.1487,-37.3472,14.7225
56.342,0.748322,-8.33176,5.54009,-12.3757,-38.0645,15.8076
56.346,0.789089,-8.45007,5.61106,-12.5258,-38.9826,17.037
56.352,0.891626,-8.52174,5.75435,-12.4537,-40.3541,18.0337
56.356,0.895196,-8.65178,5.84911,-12.3042,-42.1074,19.0002
56.362,0.950484,-8.77378,5.9072,-11.9925,-44.2832,19.6801
56.366,1.03846,-8.8809,6.03533,-11.2571,-46.608,20.4944
56.372,1.07903,-9.03478,6.09134,-10.6073,-49.2097,21.3825
56.376,1.12206,-9.16096,6.11183,-10.2575,-51.4746,22.1763
56.381,1.10323,-9.28679,6.21223,-9.62724,-54.0205,23.049
56.387,1.11117,-9.40394,6.23339,-8.86716,-56.3548,23.5533
56.391,1.12,-9.50149,6.21069,-7.94586,-58.7491,24.1202
56.397,1.12128,-9.60725,6.14802,-6.91997,-61.0811,24.5373
56.402,1.12032,-9.7177,6.12869,-5.95127,-63.1095,24.9167
56.407,1.07681,-9.80089,6.091,-4.95311,-64.9198,24.8352
56.412,1.0622,-9.92881,6.00607,-3.74944,-66.5156,24.7875
56.417,1.05243,-10.0219,5.94686,-2.60251,-67.9888,24.5273
56.422,1.06801,-10.0993,5.9118,-1.32813,-69.0245,24.2399
56.427,1.07475,-10.1718,5.82969,0.13081,-69.9258,23.963
56.432,1.09015,-10.2441,5.81428,1.6339,-70.5526,23.6573
56.438,1.0953,-10.2713,5.76553,3.28434,-70.6386,23.4308
56.443,1.17863,-10.3079,5.71672,4.92201,-70.1464,23.1377
56.448,1.19993,-10.3984,5.60805,6.30369,-69.0427,22.7214
56.453,1.27216,-10.5023,5.50005,7.58697,-67.6376,22.312
56.458,1.31012,-10.6231,5.43134,8.67342,-65.6297,21.9166
56.463,1.36961,-10.7145,5.44265,9.23625,-63.3077,21.3859
56.468,1.42215,-10.9024,5.41674,9.8299,-60.6314,20.4023
56.474,1.42004,-11.0522,5.4466,10.2205,-57.7161,19.5755
56.479,1.44303,-11.1528,5.54768,10.4665,-55.0689,18.6853
56.484,1.42054,-11.1675,5.65665,10.9779,-52.2383,17.8826
56.489,1.35835,-11.1584,5.76927,11.2792,-49.8497,17.1969
56.494,1.28603,-11.1143,5.94601,11.4521,-47.8765,16.6218
56.499,1.20985,-11.0605,6.06747,11.6184,-46.4258,16.0982
56.504,1.10029,-11.0057,6.17776,11.6744,-45.5823,15.6924
56.509,0.980358,-10.9149,6.26066,12.0633,-45.5509,15.5542
56.515,0.887462,-10.829,6.34869,12.5874,-46.0463,15.515
56.52,0.794627,-10.7448,6.43019,13.4258,-46.9805,15.9106
56.525,0.675794,-10.6004,6.47761,14.2971,-48.3901,16.4795
56.53,0.585997,-10.4634,6.49927,15.4328,-49.9336,16.9534
56.535,0.471004,-10.2654,6.54631,16.7222,-51.6971,17.8907
56.54,0.35381,-10.0264,6.55419,18.4529,-53.6205,19.1443
56.545,0.181449,-9.76968,6.52509,20.4461,-55.6328,20.4697
56.55,0.0625369,-9.47372,6.47547,22.7998,-57.8543,22.0343
56.556,-0.00623744,-9.20443,6.35995,25.1516,-60.0309,23.7656
56.561,-0.0210438,-8.94314,6.26122,27.5605,-62.5111,25.5347
56.566,-0.0960152,-8.70794,6.10571,30.1102,-64.9729,27.4346
56.571,-0.0355115,-8.54083,6.02622,32.862,-67.6514,29.2611
56.576,0.0073796,-8.42709,5.90831,35.4469,-70.8148,30.993
56.581,-0.176365,-8.39061,5.72097,38.2347,-74.8971,32.0363
56.586,-0.303389,-8.33714,5.59988,41.237,-80.2729,32.7157
56.591,-0.174098,-8.33039,5.49776,44.8447,-85.256,34.056
56.596,-0.0588438,-8.39809,5.31383,48.0134,-89.9655,35.0047
56.602,-0.0374071,-8.49205,5.19207,49.9411,-93.8519,35.1808
56.606,0.00912805,-8.73176,5.09939,51.7092,-97.3826,35.3932
56.612,0.124138,-8.98314,5.01063,54.3442,-99.803,35.6288
56.616,0.219402,-9.18113,4.89321,56.7161,-101.168,35.1745
56.622,0.31669,-9.36318,4.86974,58.3359,-101.345,34.1675
56.626,0.445618,-9.60409,4.82042,59.647,-99.8576,33.2893
56.631,0.532631,-9.87503,4.88747,60.3126,-96.9841,31.7169
56.637,0.629985,-10.1062,4.9334,60.323,-93.6992,29.3107
56.641,0.653719,-10.3743,5.07264,60.0565,-89.5427,27.0241
56.647,0.663252,-10.6332,5.20576,59.9746,-84.5726,25.2799
56.651,0.640669,-10.9069,5.23024,60.0821,-79.2411,23.3957
56.657,0.486279,-11.1519,5.33669,60.3339,-73.9811,21.3089
56.661,0.350543,-11.4298,5.45223,61.1285,-69.5897,19.0154
56.666,0.23563,-11.6377,5.39476,63.2763,-66.4795,16.4123
56.672,0.243001,-11.7118,5.26749,66.7641,-64.2308,13.3416
56.676,0.219592,-11.6808,5.14308,70.3228,-62.2067,10.8238
56.682,0.132896,-11.7001,5.04909,72.7681,-60.1505,9.35783
56.686,0.0049018,-11.7653,5.0126,74.2704,-58.0069,8.43879
56.692,-0.155731,-11.8536,5.01006,75.6878,-55.6417,7.95073
56.696,-0.158382,-11.8679,4.96127,76.9491,-52.4902,7.60643
56.702,-0.127188,-11.8955,4.87784,77.9547,-48.3873,7.40491
56.706,-0.0486,-11.8621,4.88024,78.4812,-43.5369,7.13043
56.712,-0.0519867,-11.8587,4.89684,78.6493,-38.1823,6.7159
56.717,-0.0164473,-11.8125,4.90581,78.9129,-33.0618,6.54446
56.721,-0.0230581,-11.8235,4.91222,79.6269,-27.8047,6.29648
56.727,-0.0223993,-11.8127,4.87422,80.4717,-23.1432,6.38943
56.731,-0.00116944,-11.7331,4.79335,81.492,-18.9836,6.61987
56.737,0.0379797,-11.6214,4.71101,82.5856,-15.2749,7.06211
56.741,0.0638345,-11.4542,4.59956,83.6043,-12.195,7.98612
56.747,0.0233172,-11.2672,4.45391,84.6594,-9.3404,9.01601
56.751,-0.00149126,-11.1018,4.41954,85.8335,-6.52558,10.2368
56.756,-0.0278865,-10.8154,4.37004,86.8961,-4.11439,11.8334
56.762,-0.101465,-10.501,4.29141,87.61,-1.70985,13.6068
56.766,-0.089415,-10.241,4.21088,88.3221,0.739632,15.5468
56.772,-0.0701126,-9.94502,4.09967,88.8312,3.42815,17.6435
56.776,-0.106438,-9.66804,4.06663,88.751,6.25692,19.7852
56.782,-0.155494,-9.41125,4.01434,88.1607,8.98029,21.9496
56.786,-0.164054,-9.21836,3.98325,87.7376,11.3275,23.5021
56.791,-0.186498,-9.02342,3.91988,87.1402,13.3698,25.6267
56.797,-0.206483,-8.84981,3.89036,86.4748,15.1243,28.0068
56.802,-0.226242,-8.70818,3.82035,85.7328,16.5583,29.8021
56.807,-0.247568,-8.54794,3.76285,84.8419,17.6554,31.776
56.812,-0.261794,-8.4097,3.74995,83.9748,18.7655,33.5231
56.817,-0.286848,-8.27818,3.70717,83.0821,19.5675,35.3978
56.822,-0.310669,-8.14397,3.69175,81.8983,19.8781,37.3124
56.827,-0.370568,-8.10956,3.66425,80.7801,20.0227,38.7808
56.832,-0.354422,-8.01868,3.61184,79.9559,19.4668,40.486
56.838,-0.378691,-7.95392,3.57305,79.0708,18.6245,41.955
56.843,-0.424036,-7.85738,3.58158,78.2656,17.5142,43.3185
56.848,-0.463794,-7.81114,3.49498,77.3961,16.0262,44.6042
56.853,-0.460261,-7.72976,3.42394,76.2822,14.4352,45.8256
56.858,-0.453913,-7.69921,3.45085,75.1526,12.81,46.6984
56.863,-0.479306,-7.65312,3.36446,74.1044,11.0529,47.4735
56.868,-0.467614,-7.57932,3.27452,72.6917,9.25508,48.0768
56.873,-0.482653,-7.52837,3.25007,71.3619,7.46158,48.5903
56.879,-0.484454,-7.41624,3.24085,70.0296,5.55438,49.1794
56.884,-0.500445,-7.37502,3.1629,68.4554,3.65779,49.6286
56.889,-0.483913,-7.30119,3.18175,66.8639,1.59085,49.7213
56.894,-0.495556,-7.22693,3.16158,65.2325,-0.342093,49.8668
56.899,-0.475191,-7.19372,3.10373,63.399,-2.3983,49.8197
56.904,-0.440492,-7.11977,3.08066,61.5288,-4.22923,49.6668
56.909,-0.435017,-7.07404,3.0684,59.7172,-6.2275,49.5597
56.914,-0.441779,-6.9933,3.04654,57.5008,-8.29123,49.2421
56.92,-0.383965,-6.93519,3.0701,55.4077,-10.326,48.8735
56.925,-0.320827,-6.88119,3.05273,53.1709,-12.3115,48.624
56.93,-0.285569,-6.86871,3.05327,50.8793,-14.2197,47.9954
56.935,-0.231372,-6.82863,3.09218,48.5478,-15.9937,47.4196
56.94,-0.189688,-6.81405,3.09222,46.1136,-17.875,46.8268
56.945,-0.142039,-6.89348,3.04754,43.5795,-19.9311,45.9672
56.95,-0.0854544,-6.97966,3.04336,41.1333,-21.5966,44.9585
56.955,-0.00528929,-7.05314,3.0746,38.5098,-23.055,43.7131
56.96,0.115964,-7.20463,3.07474,35.2766,-24.6349,42.3148
56.966,0.156806,-7.37805,3.09743,31.9811,-26.2973,40.9381
56.971,0.220223,-7.52008,3.12944,28.8914,-27.9264,39.4205
56.976,0.25143,-7.71001,3.14244,25.8065,-29.3279,37.7522
56.981,0.384484,-7.9126,3.17053,22.8076,-30.6338,35.8356
56.986,0.480408,-8.1287,3.21588,19.6489,-31.7434,33.8642
56.991,0.525063,-8.36344,3.25866,16.0057,-32.6504,31.788
56.996,0.567327,-8.64019,3.32328,12.4256,-33.4973,29.6069
57.001,0.646173,-8.90356,3.40925,8.86746,-34.2861,27.3656
57.006,0.684081,-9.11911,3.4924,5.69919,-35.0661,24.9028
57.012,0.786603,-9.32418,3.53133,2.47706,-35.4513,22.2435
57.017,0.801358,-9.53635,3.56067,-0.743552,-35.7002,19.5922
57.022,0.845457,-9.68296,3.60072,-4.16535,-35.755,16.9309
57.026,0.948359,-9.8435,3.64869,-7.58286,-35.401,14.2936
57.032,1.00877,-10.0052,3.65089,-11.3186,-34.5184,11.5546
57.036,1.05995,-10.1655,3.63158,-14.9687,-33.3588,8.742
57.042,1.01193,-10.2782,3.54916,-18.1448,-31.7099,5.89203
57.047,1.05204,-10.3517,3.47825,-21.4236,-30.1682,3.02526
57.052,1.10303,-10.4328,3.42351,-24.8022,-28.1214,0.423276
57.057,1.14334,-10.4315,3.39555,-28.2817,-25.887,-2.09622
57.061,1.16744,-10.4704,3.35717,-31.9669,-23.686,-4.47491
57.067,1.16553,-10.5372,3.32606,-35.5505,-21.3553,-6.75341
57.071,1.22147,-10.595,3.38792,-39.3009,-19.1696,-8.86058
57.077,1.29308,-10.6646,3.46362,-43.3422,-17.1353,-10.6618
57.081,1.31235,-10.7547,3.60744,-47.7321,-15.4478,-12.5524
57.087,1.37438,-10.8159,3.68778,-52.0017,-13.6637,-14.2441
57.092,1.36077,-10.8623,3.82295,-56.2393,-12.3324,-15.6791
57.096,1.3957,-10.8841,4.04323,-60.6471,-11.2374,-16.7841
57.102,1.43562,-10.9154,4.24158,-65.0031,-10.8323,-17.7918
57.106,1.49581,-10.9057,4.50628,-69.6947,-11.0121,-18.5561
57.112,1.57469,-10.9557,4.75924,-74.6253,-12.0333,-18.9172
57.116,1.69069,-11.0004,5.09886,-79.3486,-14.0094,-18.8843
57.122,1.80102,-11.0381,5.39446,-83.7927,-16.7425,-19.0463
57.126,1.88045,-11.0079,5.6714,-87.7616,-20.1333,-18.802
57.131,1.90428,-10.9369,5.95772,-91.4961,-24.0349,-18.2831
57.137,1.98542,-10.8139,6.18859,-94.9366,-28.6369,-17.5273
57.141,1.97048,-10.6662,6.34505,-97.7299,-33.3654,-16.596
57.147,1.90703,-10.4774,6.46529,-100.015,-37.9434,-15.5207
57.151,1.83924,-10.1941,6.5144,-101.957,-42.7199,-14.3881
57.157,1.73055,-9.77054,6.63047,-103.291,-47.3299,-12.9358
57.161,1.60764,-9.3362,6.74696,-104.182,-51.646,-10.9767
57.166,1.4915,-8.92699,6.70543,-104.765,-55.6178,-8.8835
57.172,1.39229,-8.53451,6.58087,-104.877,-59.0552,-6.66105
57.177,1.31333,-8.14024,6.49466,-104.618,-61.7256,-4.06003
57.182,1.28404,-7.77453,6.37462,-104.274,-63.6204,-1.17568
57.186,1.30149,-7.48778,6.38516,-104.21,-65.0756,1.72109
57.192,1.321,-7.35935,6.35074,-103.964,-66.6691,4.61246
57.196,1.49117,-7.23857,6.38321,-103.416,-68.3044,7.6973
57.202,1.6228,-7.2845,6.41112,-102.652,-70.2359,11.1328
57.207,1.60474,-7.49333,6.16905,-100.748,-71.4153,13.663
57.212,1.7116,-7.49482,6.0654,-98.034,-72.4863,16.5305
57.217,1.84768,-7.497,6.15172,-95.7338,-73.7378,19.7551
57.222,1.92225,-7.65357,6.17375,-93.7841,-75.631,22.7913
57.227,2.04503,-7.88947,6.11248,-91.1086,-78.055,25.8894
57.232,2.18999,-8.07092,6.10692,-87.4946,-80.2949,28.9484
57.237,2.31585,-8.21486,6.01386,-83.7963,-82.3944,31.9257
57.242,2.3804,-8.37089,5.95493,-79.7415,-84.1682,34.4169
57.248,2.44796,-8.53393,5.90495,-75.9631,-85.5923,36.5871
57.253,2.56323,-8.69808,5.86634,-72.6,-86.7298,38.1389
57.258,2.68024,-8.91111,5.78128,-69.1042,-87.7232,39.072
57.263,2.73337,-9.13979,5.6822,-65.6028,-88.5116,39.7712
57.268,2.77223,-9.41093,5.54178,-62.2114,-88.624,40.1526
57.273,2.82428,-9.64582,5.40224,-58.7616,-88.1191,39.787
57.278,2.90997,-9.8887,5.2477,-55.1934,-87.0279,38.7281
57.283,2.98727,-10.1313,5.12456,-51.6213,-84.7435,36.9003
57.289,3.09329,-10.3616,5.00899,-47.8206,-81.2657,34.2613
57.294,3.42439,-10.4738,4.88509,-44.0539,-76.1655,31.0054
57.299,4.1217,-10.4457,4.49942,-40.4532,-70.1081,27.3107
57.304,3.83814,-10.5808,3.4486,-37.7749,-63.3619,24.6267
57.309,2.82891,-11.1595,3.1022,-35.2822,-53.487,24.5834
57.314,2.95535,-11.7675,3.49569,-29.0421,-36.3597,17.2165
57.319,4.27784,-11.1207,3.09751,-18.2234,-12.7541,-3.55914
57.324,5.46695,-9.78003,2.85795,-10.753,17.0141,-24.3811
57.33,5.86663,-9.35354,3.27364,-11.3167,53.4602,-35.919
57.335,5.10164,-9.77185,4.1778,-15.6447,87.6392,-42.1489
57.34,3.54987,-9.94024,5.35301,-17.2033,110.393,-47.5452
57.345,1.89852,-9.63756,6.2702,-14.1466,117.862,-50.5095
57.35,0.67957,-9.02624,6.78621,-8.17134,110.765,-49.9133
57.355,0.0323757,-8.45904,6.92762,-2.98175,94.6808,-46.9908
57.36,-0.0651104,-8.16877,6.71489,-0.0315931,75.8936,-43.2748
57.366,0.102858,-8.07661,6.32003,0.745148,60.0732,-40.339
57.371,0.416985,-8.063,6.14096,0.00533831,49.956,-39.2718
57.376,0.669146,-8.08046,6.13799,-1.26559,44.6499,-39.9557
57.381,0.571228,-8.01169,6.2271,-2.59793,40.7031,-40.9623
57.386,0.213007,-7.81939,6.52552,-3.67905,35.1327,-40.9022
57.391,-0.101874,-7.60619,6.82583,-4.76057,26.2111,-39.1779
57.396,-0.21956,-7.33641,7.00432,-5.52808,13.763,-36.5881
57.401,-0.147913,-7.12451,7.07427,-6.04246,-1.03351,-33.6302
57.407,0.0324415,-7.09383,6.99434,-6.29517,-15.8965,-30.5172
57.411,0.308638,-7.13364,6.74507,-6.27604,-28.929,-27.8951
57.417,0.613838,-7.11926,6.40781,-5.98622,-38.6438,-25.9413
57.422,0.830447,-7.031,6.07069,-6.41984,-44.7852,-24.647
57.427,1.01511,-6.9568,5.72295,-7.53944,-47.2612,-23.7234
57.432,1.11261,-6.85869,5.45902,-9.71046,-47.3732,-22.8235
57.436,0.999285,-6.80797,5.27215,-12.767,-46.7582,-22.0404
57.442,0.914365,-6.82453,5.1669,-15.6148,-45.8372,-21.3821
57.446,0.798559,-6.83474,5.1052,-18.3024,-44.9538,-20.5777
57.452,0.676893,-6.90852,5.0676,-20.2699,-44.8062,-19.4774
57.456,0.569713,-6.99846,5.00997,-22.079,-45.331,-18.5962
57.462,0.458353,-7.13321,4.98542,-23.6852,-46.0949,-17.8718
57.467,0.412641,-7.22281,4.98452,-24.9828,-46.718,-17.2712
57.471,0.375518,-7.3779,5.00139,-26.1524,-47.4245,-17.1384
57.477,0.336083,-7.55013,5.05443,-27.5842,-47.8833,-16.9861
57.481,0.257417,-7.71735,5.17584,-28.8343,-48.4805,-16.8391
57.487,0.237799,-7.94471,5.251,-29.51,-48.9345,-16.903
57.491,0.2135,-8.11628,5.36366,-30.0673,-49.587,-16.8673
57.497,0.235881,-8.25609,5.47531,-30.093,-50.235,-17.0058
57.501,0.165706,-8.37213,5.60056,-29.8766,-50.8935,-17.0044
57.506,0.124603,-8.4564,5.72808,-29.5018,-51.8846,-16.9564
57.512,0.0615103,-8.49796,5.75262,-28.8697,-53.3509,-16.7772
57.517,0.0219263,-8.55171,5.79825,-27.7521,-55.0423,-16.5765
57.522,-0.0234501,-8.55589,5.84096,-26.3312,-56.6392,-16.1744
57.526,-0.110264,-8.55925,5.76722,-24.6091,-58.2555,-15.4955
57.532,-0.171885,-8.55606,5.72356,-23.0264,-59.4138,-14.6733
57.536,-0.256457,-8.43384,5.70367,-21.2973,-60.3488,-13.9546
57.542,-0.306689,-8.37045,5.69302,-19.6123,-61.2186,-12.941
57.547,-0.356377,-8.30697,5.64376,-17.7057,-62.0209,-11.7196
57.552,-0.400979,-8.25475,5.56602,-15.6007,-62.6098,-9.97238
57.557,-0.419426,-8.20045,5.55818,-13.5543,-63.0315,-8.27101
57.561,-0.461304,-8.1357,5.5227,-11.4222,-63.1762,-6.6433
57.567,-0.474975,-8.11229,5.49167,-9.16893,-63.247,-4.90009
57.571,-0.461284,-8.11503,5.42589,-7.20329,-63.378,-3.00976
57.577,-0.341532,-8.10808,5.43239,-5.13958,-63.2893,-0.685817
57.581,-0.273847,-8.15969,5.34885,-3.21481,-62.9239,1.60654
57.587,-0.215565,-8.20643,5.25687,-1.26725,-62.5229,3.75548
57.592,-0.0711808,-8.27304,5.26944,0.290952,-61.9722,6.21726
57.596,0.015182,-8.44583,5.23633,1.78784,-61.5265,8.61734
57.602,0.151321,-8.60983,5.19089,3.30981,-60.9316,10.7986
57.606,0.230213,-8.75181,5.14588,5.07767,-60.0974,13.0521
57.612,0.31474,-8.85979,5.17949,6.74848,-59.1656,15.0547
57.617,0.361892,-8.98846,5.24279,7.77016,-58.0622,17.0485
57.622,0.413118,-9.17125,5.31373,8.58553,-57.1511,19.0918
57.627,0.406225,-9.33756,5.44272,9.21967,-56.6229,20.6998
57.632,0.470416,-9.46626,5.54132,9.94798,-56.4648,22.5429
57.637,0.480622,-9.59949,5.61597,10.7976,-56.5726,24.2357
57.642,0.461215,-9.73791,5.74782,11.7479,-56.868,25.846
57.647,0.50732,-9.80697,5.8196,12.7011,-57.231,27.2063
57.653,0.538956,-9.92742,5.85596,13.6561,-57.6388,28.4
57.658,0.527702,-10.0385,5.8858,14.2888,-57.9267,29.4683
57.663,0.525221,-10.0912,5.90701,14.8839,-57.9667,30.514
57.668,0.502157,-10.1512,5.90889,15.662,-58.0087,31.5623
57.673,0.496172,-10.1639,5.87016,16.4025,-57.8029,32.588
57.678,0.52481,-10.1749,5.86995,16.7574,-57.5373,33.5932
57.683,0.531869,-10.2894,5.84479,17.1699,-57.4165,34.7276
57.689,0.535015,-10.3675,5.78517,17.5866,-57.227,35.6199
57.694,0.520435,-10.4687,5.72112,17.8211,-57.0578,36.4262
57.699,0.523037,-10.6003,5.65842,17.992,-57.1075,37.2463
57.704,0.500979,-10.759,5.62378,18.0777,-57.6152,37.9654
57.709,0.516544,-10.9579,5.71974,18.0593,-58.3666,38.6596
57.714,0.555397,-11.1431,5.7596,18.0966,-59.5578,39.3837
57.719,0.560234,-11.338,5.82628,18.4958,-61.1618,40.0892
57.724,0.545753,-11.4716,5.94987,19.077,-63.0853,40.6147
57.73,0.539372,-11.6236,6.05395,19.9007,-65.2007,41.1053
57.735,0.592518,-11.6121,6.14268,21.1673,-67.6796,41.6543
57.74,0.507844,-11.5829,6.28119,22.4495,-70.4643,42.2858
57.745,0.476972,-11.5374,6.35276,23.7323,-73.0902,43.0087
57.75,0.428533,-11.4653,6.44854,24.9707,-75.9909,43.7605
57.755,0.372082,-11.4033,6.53643,26.1855,-79.2444,44.4731
57.76,0.366748,-11.3109,6.53602,27.7878,-82.2629,45.3055
57.765,0.300165,-11.2057,6.58408,29.4063,-85.4286,46.312
57.771,0.222838,-11.0557,6.63745,31.0262,-88.4578,47.3262
57.776,0.121232,-10.9149,6.70708,32.8648,-91.6919,48.5323
57.781,-0.0247949,-10.8013,6.73441,35.1868,-95.6052,49.5696
57.786,-0.143956,-10.6541,6.69687,38.3807,-99.4859,50.8313
57.791,-0.180793,-10.4322,6.65415,42.1485,-102.702,52.3224
57.796,-0.191334,-10.2162,6.55715,45.9457,-105.18,53.7937
57.801,-0.23907,-10.0178,6.36627,49.7444,-107.362,55.3639
57.806,-0.265421,-9.83984,6.22674,53.4483,-108.992,56.8736
57.811,-0.220957,-9.62981,6.07585,57.3015,-109.946,58.4709
57.817,-0.166155,-9.44753,5.84836,61.0512,-110.826,60.2256
57.821,-0.00575649,-9.36417,5.64173,64.6263,-111.226,61.7597
57.827,0.0960875,-9.40129,5.41432,68.3333,-111.12,63.0245
57.831,0.192338,-9.44148,5.2403,71.7079,-110.384,63.8473
57.837,0.263283,-9.52559,5.0147,74.8075,-109.001,64.448
57.842,0.312037,-9.65816,4.85104,77.9968,-107.433,64.6418
57.846,0.385736,-9.85291,4.79215,80.8071,-105.962,64.2319
57.852,0.471418,-10.0283,4.69308,84.0988,-103.841,63.3838
57.856,0.673886,-10.169,4.49475,87.771,-100.702,62.3548
57.862,0.76633,-10.3511,4.36246,90.5197,-97.0874,60.8294
57.866,0.710214,-10.4787,4.38924,92.1283,-93.8016,59.067
57.872,0.614891,-10.6771,4.53291,93.6043,-90.6599,57.923
57.876,0.561208,-10.974,4.70366,94.9721,-88.1711,56.7305
57.881,0.636987,-11.2553,4.76636,96.4153,-87.0383,54.8765
57.887,0.733123,-11.45,4.81295,98.3085,-86.2685,52.589
57.891,0.753319,-11.6556,4.80198,100.517,-85.3566,49.6855
57.897,0.783759,-11.7788,4.81101,102.887,-84.5038,46.8446
57.901,0.794953,-11.9166,4.92548,104.765,-83.7681,44.2085
57.907,0.802073,-12.0061,4.91463,106.402,-82.7261,41.5318
57.911,0.797019,-12.0357,4.90852,108.024,-81.0611,38.9551
57.917,0.794888,-12.009,4.85569,109.141,-78.7532,36.691
57.922,0.777955,-11.9982,4.82103,109.593,-75.6503,34.5178
57.927,0.785815,-11.9638,4.74518,109.664,-72.0565,32.4314
57.932,0.790534,-11.9189,4.67346,109.494,-67.9977,30.3957
57.936,0.779917,-11.8427,4.58261,109.082,-63.7257,28.4785
57.942,0.723801,-11.8079,4.51296,108.537,-59.6194,27.0964
57.946,0.737693,-11.7277,4.38622,107.971,-55.5713,25.7743
57.952,0.711203,-11.647,4.29397,107.242,-51.2596,24.6475
57.956,0.721435,-11.5172,4.23801,106.473,-46.6326,23.7483
57.962,0.686677,-11.3737,4.21295,105.519,-41.9585,23.0129
57.967,0.644276,-11.2884,4.11931,104.52,-37.3779,22.4811
57.971,0.632579,-11.085,4.09236,103.585,-32.4197,22.0271
57.977,0.553208,-10.9242,4.07264,102.705,-27.539,21.9521
57.981,0.517661,-10.7265,4.03643,101.718,-22.993,22.0109
57.987,0.472078,-10.5364,4.02324,100.944,-18.8794,22.4124
57.991,0.395029,-10.3585,3.96734,100.285,-15.0332,23.1555
57.997,0.370096,-10.1689,3.84926,99.7442,-11.5441,23.9068
58.001,0.385828,-9.9667,3.80191,99.1792,-8.06805,24.8849
58.006,0.307933,-9.77365,3.70684,98.3899,-4.59212,25.9053
58.012,0.304591,-9.59555,3.6342,97.4945,-1.31471,27.0673
58.017,0.290684,-9.45191,3.60231,96.5384,2.01621,28.259
58.022,0.218534,-9.29421,3.52386,95.4166,5.33843,29.63
58.026,0.155232,-9.19485,3.45074,94.3102,8.1961,30.9923
58.032,0.069381,-9.06109,3.4172,93.1814,10.8371,32.3235
58.036,0.0290786,-8.9616,3.41095,92.107,12.9021,33.6766
58.042,0.0212706,-8.82125,3.39755,90.9859,14.5786,35.1339
58.047,-0.0232296,-8.73165,3.3413,89.9047,16.121,36.5385
58.052,-0.0369385,-8.57908,3.3035,88.9832,17.1273,37.7319
58.057,-0.0706532,-8.49522,3.26998,87.9763,17.8567,38.999
58.061,-0.121368,-8.43371,3.2914,86.7844,18.2933,40.1643
58.067,-0.162868,-8.32444,3.26495,85.6476,18.1311,41.2681
58.071,-0.211797,-8.26014,3.27512,84.3848,17.6676,42.4071
58.077,-0.236502,-8.1848,3.27557,83.2247,16.9714,43.2972
58.081,-0.246842,-8.10963,3.27622,81.9339,15.7462,44.3732
58.087,-0.240495,-8.07908,3.30314,80.6217,14.2818,45.3346
58.092,-0.268375,-8.00568,3.30056,79.4694,12.6211,46.3508
58.096,-0.314505,-7.9573,3.32559,78.0962,10.8705,47.0759
58.102,-0.285173,-7.91838,3.31541,76.5786,8.85152,47.7376
58.106,-0.27589,-7.8457,3.28187,75.1436,6.83693,48.3097
58.112,-0.212256,-7.85141,3.29466,73.6075,4.85135,48.8728
58.116,-0.231934,-7.79978,3.25946,71.8909,2.8003,49.1833
58.122,-0.204435,-7.80278,3.23251,70.1174,0.712948,49.1901
58.126,-0.175218,-7.77456,3.22171,68.223,-1.2897,49.1726
58.131,-0.150191,-7.78292,3.14005,66.3343,-3.08734,48.9211
58.137,-0.122324,-7.79475,3.08041,64.0808,-4.7446,48.6723
58.141,-0.11155,-7.76558,3.02003,61.8126,-6.11859,48.2575
58.147,-0.0732373,-7.70028,2.96075,59.5947,-7.19402,47.4051
58.151,-0.0286768,-7.73007,2.94823,57.0116,-8.28787,46.4641
58.157,0.0304705,-7.71194,2.95804,54.1488,-9.12314,45.3608
58.161,0.0500263,-7.686,2.95126,51.4115,-9.81565,44.131
58.166,0.0596933,-7.65705,2.96812,48.534,-10.3677,42.8617
58.172,0.0868593,-7.63876,2.98103,45.6996,-10.9624,41.3809
58.177,0.0721285,-7.57643,3.05527,42.6641,-11.3632,39.8902
58.182,0.0690724,-7.51432,3.09461,39.381,-11.9582,38.4939
58.186,0.118842,-7.44618,3.24168,36.1963,-12.5147,37.3565
58.192,0.163437,-7.4635,3.23633,33.138,-12.9509,36.0092
58.196,0.248423,-7.52874,3.27243,29.84,-13.2627,34.4468
58.202,0.311426,-7.53277,3.33036,26.7646,-13.5293,33.009
58.206,0.350683,-7.59935,3.3242,23.6963,-13.4548,31.345
58.212,0.329594,-7.67427,3.28805,20.6489,-13.2997,29.7042
58.217,0.351322,-7.71593,3.29954,17.4978,-13.2294,28.1298
58.222,0.401714,-7.87111,3.33845,14.3615,-13.4425,26.7215
58.227,0.50255,-8.03336,3.30618,11.695,-13.5748,25.2519
58.232,0.52222,-8.19169,3.2579,9.13412,-13.6673,23.5494
58.237,0.595338,-8.31897,3.29307,6.81896,-13.5205,21.919
58.242,0.680211,-8.44825,3.28679,4.42636,-13.3317,20.053
58.247,0.74297,-8.66042,3.1974,1.93665,-12.7054,18.2019
58.252,0.81433,-8.85805,3.18837,-0.855021,-12.0372,16.1574
58.258,0.901582,-9.08693,3.15988,-3.51457,-10.7037,13.9348
58.263,0.993215,-9.32363,3.15459,-6.37432,-9.19865,11.619
58.268,1.0401,-9.53948,3.16775,-9.46951,-7.16042,9.11201
58.273,1.08563,-9.74201,3.17378,-12.6455,-4.83159,6.79392
58.278,1.13123,-9.91963,3.19416,-15.9024,-2.55211,4.39882
58.283,1.15994,-10.0681,3.3047,-19.4459,-0.355384,2.0676
58.288,1.19274,-10.2374,3.33321,-23.2572,1.88398,-0.0100347
58.293,1.21883,-10.3344,3.44386,-26.8288,3.99886,-1.87253
58.299,1.2972,-10.3572,3.52808,-30.5259,5.97098,-3.60849
58.304,1.3486,-10.3628,3.61437,-34.4097,7.6951,-5.27972
58.309,1.3825,-10.3844,3.68373,-38.7049,9.17125,-6.84385
58.314,1.39712,-10.4329,3.85135,-43.2113,10.2277,-8.20777
58.319,1.47394,-10.5255,3.98946,-48.0922,10.8108,-9.35878
58.324,1.48115,-10.6991,4.13111,-53.022,10.8917,-10.3302
58.329,1.55249,-10.8374,4.28149,-57.5093,10.6091,-11.2432
58.335,1.5788,-10.8595,4.43511,-61.8417,9.74394,-12.0421
58.34,1.62666,-10.7782,4.61368,-65.957,8.53775,-12.6571
58.345,1.70449,-10.6803,4.83374,-70.0007,6.92578,-12.8935
58.35,1.77734,-10.5931,4.94434,-74.1937,4.81814,-13.0427
58.355,1.81794,-10.5254,5.06337,-78.2242,2.4467,-13.387
58.36,1.89965,-10.5374,5.1447,-82.1776,-0.125368,-13.587
58.365,1.91741,-10.5883,5.20425,-86.5195,-2.90997,-13.8233
58.37,1.99342,-10.6533,5.31034,-90.6993,-5.77712,-14.0803
58.376,2.01998,-10.7357,5.39604,-95.0002,-8.71825,-14.4529
58.381,2.06683,-10.7631,5.56184,-99.0035,-12.1099,-14.6557
58.386,2.10336,-10.711,5.8394,-102.85,-15.7892,-14.6452
58.391,2.12836,-10.6541,6.0348,-106.274,-19.7762,-14.5916
58.396,2.07266,-10.5586,6.32068,-109.077,-24.5149,-14.4176
58.401,2.00912,-10.3761,6.55139,-111.418,-29.4917,-13.9952
58.406,2.02079,-10.1488,6.69717,-113.314,-34.1972,-13.1495
58.411,1.99409,-9.83676,6.79865,-114.705,-39.0247,-12.1757
58.417,1.94242,-9.54917,6.84326,-115.318,-43.4496,-11.2121
58.422,1.81867,-9.19389,6.84425,-115.053,-47.4785,-10.1673
58.427,1.74829,-8.79101,6.72074,-114.435,-50.7519,-9.00892
58.432,1.678,-8.40245,6.58355,-113.713,-53.4419,-7.55992
58.436,1.68452,-8.05086,6.40456,-113.126,-55.2649,-5.94342
58.442,1.72242,-7.73864,6.23304,-112.613,-56.2752,-4.19003
58.446,1.83218,-7.48283,6.24245,-112.199,-56.9615,-2.3461
58.452,2.00842,-7.36533,6.29342,-112.405,-57.8844,-0.0877998
58.456,1.94768,-7.51669,6.06694,-111.884,-58.5757,1.35638
58.462,2.01264,-7.55416,5.96201,-110.129,-58.523,2.47945
58.467,2.11331,-7.50969,5.88097,-107.823,-58.0002,3.88431
58.471,2.15196,-7.46567,5.78182,-105.716,-57.1922,5.12054
58.477,2.2124,-7.49177,5.66675,-104.134,-56.3649,6.1222
58.481,2.24108,-7.5579,5.61825,-102.143,-55.3809,7.17558
58.487,2.30309,-7.66417,5.55289,-99.9246,-54.3279,7.9446
58.491,2.31157,-7.82041,5.50743,-97.4376,-53.1588,8.55133
58.497,2.35675,-8.02012,5.4285,-94.8422,-51.6774,8.94077
58.501,2.40419,-8.23587,5.40304,-92.3415,-50.3246,8.73802
58.506,2.38878,-8.53936,5.34793,-89.8082,-48.6622,7.91573
58.512,2.37168,-8.84744,5.29753,-87.5127,-46.9205,6.7117
58.516,2.40949,-9.1946,5.28285,-85.045,-44.9875,5.01091
58.522,2.41893,-9.57695,5.21421,-82.0175,-42.8092,2.75858
58.526,2.34588,-9.89693,5.26813,-78.4702,-40.4106,-0.0838769
58.532,2.29236,-10.1768,5.329,-74.7652,-37.3786,-3.49767
58.536,2.22908,-10.4037,5.44213,-71.0656,-33.9482,-7.64495
58.541,2.15935,-10.5837,5.4864,-67.1858,-30.7923,-11.8055
58.547,2.16612,-10.6911,5.4874,-62.6814,-28.1382,-15.913
58.552,2.18153,-10.7242,5.5,-57.6974,-25.9143,-19.7651
58.557,2.12027,-10.6972,5.56219,-52.4935,-23.9177,-23.5086
58.561,2.12981,-10.6522,5.59927,-47.3007,-21.3879,-27.4854
58.567,2.15578,-10.536,5.55067,-41.9814,-18.3978,-31.4063
58.571,2.29271,-10.1878,5.51791,-36.9098,-15.2621,-34.9668
58.577,2.47237,-9.95652,5.3102,-32.2328,-12.0229,-37.8892
58.581,2.21527,-9.92681,4.8853,-27.8695,-8.63078,-40.0964
58.587,2.10087,-9.83716,4.80369,-23.8814,-2.60197,-42.438
58.592,2.58629,-9.47063,4.87165,-19.7543,6.94605,-47.471
58.596,3.12694,-8.9041,4.70033,-16.1281,19.4328,-53.5706
58.602,3.17951,-8.54572,4.54459,-15.5336,33.1001,-57.3407
58.606,2.85878,-8.45545,4.70958,-16.8452,45.9721,-57.9224
58.612,2.41361,-8.35124,4.98871,-17.3282,56.5115,-57.1055
58.616,1.95835,-8.13801,5.2769,-16.7006,63.5537,-55.6008
58.622,1.58419,-7.97207,5.44192,-15.9918,66.2519,-53.2361
58.627,1.29762,-7.81397,5.50481,-15.2783,65.3052,-49.7988
58.632,1.05789,-7.74254,5.57406,-14.8801,61.8909,-46.1909
58.637,0.883303,-7.72634,5.51159,-14.4657,57.3098,-43.2068
58.642,0.890893,-7.63753,5.38597,-13.7751,53.1635,-40.6946
58.647,1.00433,-7.56041,5.33136,-13.6309,50.4204,-38.7012
58.652,1.16446,-7.56647,5.29621,-14.2332,49.4109,-37.2287
58.658,1.26678,-7.55059,5.30009,-15.7209,50.253,-36.3996
58.663,1.33025,-7.57345,5.42275,-17.9877,52.1794,-35.7379
58.668,1.31338,-7.59333,5.58228,-19.9991,55.1401,-35.0394
58.673,1.25193,-7.58343,5.75434,-22.0529,58.121,-34.2126
58.678,1.13469,-7.62816,5.98963,-24.0767,60.3541,-33.2285
58.683,1.01595,-7.68871,6.09234,-25.9177,60.962,-32.0721
58.688,0.930205,-7.70655,6.15583,-27.5537,60.1613,-30.7122
58.693,0.842288,-7.7368,6.13845,-28.7136,58.3405,-29.2952
58.699,0.753567,-7.78033,6.05447,-29.5411,55.549,-27.7021
58.704,0.691684,-7.78429,6.02326,-30.2735,52.0248,-26.2231
58.709,0.602608,-7.819,5.97197,-31.0543,47.8173,-24.7391
58.714,0.517917,-7.84908,5.95107,-31.8394,43.2012,-23.279
58.719,0.422264,-7.90903,5.8925,-32.4191,38.4596,-22.051
58.724,0.325005,-7.93617,5.86013,-32.7962,33.6602,-20.8051
58.729,0.199533,-8.00201,5.7607,-33.0336,28.5616,-19.611
58.734,0.107867,-8.02608,5.67494,-33.2272,23.579,-18.5372
58.74,0.049801,-8.03799,5.70558,-33.4175,18.6876,-17.622
58.745,0.0116655,-8.12104,5.73808,-33.7362,13.3809,-16.5962
58.75,-0.064572,-8.23978,5.72715,-34.0981,7.7771,-15.625
58.755,-0.046875,-8.35648,5.73779,-34.1358,2.00833,-14.6948
58.76,-0.042156,-8.42048,5.80423,-33.5899,-4.1058,-13.5756
58.765,-0.0584995,-8.43205,5.82119,-32.7801,-10.1727,-12.3768
58.77,-0.0731273,-8.41236,5.85431,-31.946,-16.0677,-11.3134
58.775,-0.0497153,-8.40859,5.89566,-31.3212,-22.0876,-9.95048
58.78,-0.0403345,-8.37258,5.93867,-30.5751,-28.0334,-8.47214
58.786,-0.0187648,-8.41072,5.96324,-29.6003,-33.5703,-7.01204
58.791,-0.00021083,-8.37429,6.03431,-28.6835,-38.7812,-5.50646
58.796,0.0780894,-8.33386,6.06288,-27.8284,-43.5761,-3.6221
58.801,0.141718,-8.28621,6.11739,-26.9715,-48.076,-1.63846
58.806,0.177634,-8.28362,6.17675,-26.2306,-52.2637,0.170291
58.811,0.172079,-8.32757,6.19556,-25.6714,-56.3131,1.98429
58.816,0.175974,-8.33729,6.25085,-24.8854,-60.2486,3.68077
58.821,0.252655,-8.31739,6.26388,-23.7675,-63.5092,5.4671
58.827,0.299583,-8.32582,6.32632,-22.9743,-66.4236,7.46936
58.831,0.322389,-8.36128,6.37825,-22.5278,-69.3896,9.48156
58.837,0.370021,-8.48807,6.40949,-22.0399,-72.3535,11.449
58.842,0.43945,-8.63161,6.46654,-20.9787,-75.1519,13.2888
58.846,0.494657,-8.6636,6.48982,-19.5896,-77.684,15.1947
58.852,0.569298,-8.707,6.48483,-18.2388,-80.1271,16.9866
58.856,0.69249,-8.75253,6.54411,-17.0467,-82.3964,18.6403
58.862,0.733447,-8.83523,6.63002,-15.7116,-84.5337,20.3496
58.866,0.808922,-8.9063,6.65707,-14.415,-86.7407,21.8537
58.872,0.907068,-8.96189,6.67318,-12.9928,-88.8047,23.2312
58.876,0.960221,-9.05719,6.67844,-11.3002,-90.2991,24.637
58.881,1.02059,-9.06303,6.69472,-9.53908,-91.3471,25.8784
58.887,1.03218,-9.11482,6.62463,-7.78663,-91.748,26.8109
58.891,1.06519,-9.19303,6.48822,-6.0028,-91.296,27.6478
58.897,1.0533,-9.22019,6.40419,-4.16629,-90.0919,28.2376
58.901,1.00315,-9.3187,6.26181,-2.35845,-88.0037,28.6781
58.907,0.978132,-9.4023,6.04551,-0.520161,-85.38,28.8404
58.911,0.97727,-9.52056,5.90199,1.04365,-82.1116,28.7808
58.917,0.942471,-9.66453,5.76502,2.40869,-78.5353,28.636
58.922,0.919818,-9.8276,5.65789,3.78087,-74.6178,28.2651
58.927,0.938869,-9.99842,5.64104,5.11397,-70.5887,27.8636
58.932,0.939044,-10.2237,5.56499,6.65246,-66.6849,27.2301
58.936,0.960324,-10.3963,5.61532,8.37259,-62.9194,26.5912
58.942,0.997596,-10.6162,5.62593,10.2335,-59.4756,25.8172
58.946,0.981216,-10.8292,5.71129,12.0288,-56.2057,25.2234
58.952,1.03543,-11.019,5.79117,13.8636,-53.2286,24.4855
58.956,1.11259,-11.2478,5.90989,15.7493,-50.9188,23.9283
58.962,1.12536,-11.4924,6.05321,17.4662,-49.049,23.4432
58.967,1.16342,-11.7196,6.22722,18.9892,-47.7684,23.249
58.971,1.20324,-11.9299,6.40369,20.7077,-47.2268,23.0328
58.977,1.19348,-12.1135,6.60747,22.6597,-47.5134,22.9085
58.981,1.19049,-12.2236,6.84062,24.7468,-48.3266,22.8832
58.987,1.19298,-12.3147,7.04065,26.8244,-49.5949,23.1594
58.991,1.21732,-12.3486,7.21145,29.2825,-51.3094,23.5155
58.997,1.194,-12.309,7.30926,31.9223,-53.1621,23.8662
59.001,1.09142,-12.1986,7.42217,34.3422,-54.7874,24.1084
59.006,0.993421,-12.0665,7.45559,36.739,-56.2671,24.6687
59.012,0.889372,-11.9453,7.45681,38.9086,-57.6794,25.5212
59.016,0.764043,-11.793,7.4073,40.8665,-59.3302,26.7485
59.022,0.660145,-11.6754,7.39544,42.7827,-61.142,27.9294
59.027,0.579259,-11.5903,7.31194,44.9989,-63.2904,29.2046
59.032,0.489178,-11.5322,7.17947,47.636,-65.5204,30.8641
59.037,0.439118,-11.3635,7.01761,50.8323,-67.1429,32.3213
59.042,0.485402,-11.1441,6.74495,54.2392,-68.1644,33.7528
59.047,0.482428,-10.9726,6.41797,57.5319,-68.5788,35.1087
59.052,0.42258,-10.7694,6.18355,60.7082,-68.4998,36.4642
59.057,0.39162,-10.5026,5.99193,63.7027,-68.2825,37.8251
59.063,0.358333,-10.3061,5.79471,66.2289,-68.0096,39.2552
59.068,0.323963,-10.1508,5.64016,68.8136,-67.9042,40.7311
59.073,0.269629,-10.0251,5.5179,71.2927,-68.5184,41.9082
59.078,0.263606,-9.96197,5.43066,73.9525,-69.5883,42.8973
59.083,0.299951,-9.90839,5.38853,76.8372,-71.1795,43.4037
59.088,0.153469,-9.84343,5.29568,80.0656,-74.011,43.0864
59.093,0.261658,-9.70246,5.21326,83.2234,-77.5835,42.834
59.098,0.46903,-9.65592,5.04166,86.4731,-80.7799,43.5989
59.103,0.645195,-9.63516,4.91173,88.9862,-82.7524,44.1593
59.109,0.679807,-9.63946,4.8326,90.5177,-83.4024,44.7096
59.114,0.630659,-9.70331,4.75805,91.5653,-84.2123,44.8057
59.119,0.611102,-9.61433,4.74435,93.0939,-84.8704,44.1064
59.124,0.749415,-9.52352,4.74597,94.6265,-84.2594,44.1376
59.129,0.849118,-9.48279,4.72908,95.1775,-82.1662,44.2497
59.134,0.929689,-9.48514,4.79026,94.1226,-79.1088,43.5917
59.139,0.903755,-9.60967,4.94284,92.7333,-75.7158,42.3924
59.144,0.758912,-9.83636,5.06553,92.2517,-73.853,40.5434
59.15,0.691314,-9.96895,5.10756,93.3156,-74.1013,38.5212
59.155,0.696968,-10.0417,5.1027,95.3206,-75.8565,36.3798
59.16,0.71752,-10.1679,5.01768,97.3746,-78.2336,34.5855
59.165,0.740724,-10.2448,4.89836,98.9216,-80.2852,32.9212
59.17,0.76996,-10.2841,4.83211,99.7652,-81.4087,31.4009
59.175,0.777777,-10.3423,4.6865,99.933,-81.0221,29.9127
59.18,0.689034,-10.425,4.5745,99.9902,-79.5977,28.4561
59.185,0.64972,-10.4509,4.51088,99.6742,-77.3863,26.6937
59.191,0.597571,-10.4543,4.46911,99.4479,-74.8285,24.6152
59.196,0.526341,-10.4818,4.40205,99.1434,-72.0478,22.4758
59.201,0.510386,-10.4548,4.31039,98.9614,-69.216,20.3686
59.206,0.465248,-10.4294,4.25041,98.7141,-66.3991,18.533
59.211,0.468286,-10.3766,4.19058,98.3809,-63.6778,16.9457
59.216,0.431057,-10.3185,4.04819,98.4342,-61.0389,15.2955
59.221,0.373366,-10.1977,4.04651,98.4225,-58.4153,13.917
59.227,0.367561,-10.1132,3.9605,98.4897,-55.6973,12.7821
59.231,0.351198,-10.0016,3.85302,98.7209,-52.7668,11.7259
59.237,0.331877,-9.88466,3.73004,98.8681,-49.637,11.0173
59.241,0.289864,-9.7015,3.68717,99.1808,-46.1587,10.3953
59.247,0.252337,-9.55634,3.63356,99.2443,-42.6709,10.1256
59.251,0.22799,-9.42824,3.53908,99.1823,-39.3259,9.98242
59.256,0.203082,-9.32693,3.46235,99.3243,-35.9026,9.86508
59.262,0.203738,-9.2012,3.40388,99.2543,-32.5365,10.2973
59.266,0.23025,-9.05811,3.33751,99.0464,-28.9161,10.6146
59.272,0.210951,-8.96196,3.31135,98.6341,-25.1929,11.0808
59.276,0.222168,-8.89002,3.25347,98.1609,-21.4162,11.5765
59.282,0.175623,-8.81038,3.22094,97.3196,-17.9303,11.9676
59.286,0.179615,-8.72114,3.2355,96.4141,-14.482,12.5472
59.292,0.176664,-8.67503,3.25461,95.3228,-11.3042,13.108
59.297,0.174401,-8.653,3.3188,94.2276,-8.37632,13.7363
59.302,0.170515,-8.58993,3.30525,92.8258,-5.63421,14.3218
59.307,0.105928,-8.56129,3.37749,91.7217,-3.3426,15.077
59.311,0.131493,-8.53687,3.39575,90.5377,-1.12282,15.6718
59.317,0.150789,-8.49142,3.42229,89.3118,0.936021,16.2202
59.321,0.102832,-8.45828,3.45141,88.0036,2.80934,16.6836
59.327,0.0848951,-8.43701,3.49458,86.4658,4.2963,17.2486
59.331,0.0722744,-8.41985,3.49683,84.9024,5.47525,17.9411
59.337,0.00633246,-8.48461,3.47848,83.26,6.5599,18.3899
59.342,-0.00384302,-8.50122,3.5074,81.6423,7.63505,18.5287
59.346,-0.0476867,-8.53644,3.53044,80.0611,8.48487,18.7734
59.352,-0.0987132,-8.54792,3.51542,78.1737,9.30781,19.0666
59.356,-0.110387,-8.57435,3.52944,76.247,10.0835,19.238
59.362,-0.088177,-8.53412,3.57147,74.3402,10.9622,19.5159
59.366,-0.0845605,-8.5161,3.55612,72.5119,11.7764,19.9462
59.372,-0.130126,-8.49429,3.52165,70.7096,12.7174,20.0744
59.376,-0.130211,-8.40427,3.48684,68.8038,13.5736,20.269
59.381,-0.0907709,-8.32031,3.47515,67.2012,14.5242,20.665
59.387,-0.12642,-8.28906,3.42422,65.5018,15.5725,20.8102
59.391,-0.140675,-8.22262,3.24475,63.8478,17.0317,20.9343
59.397,-0.140391,-8.16811,3.15637,61.9514,18.6829,21.0934
59.401,-0.108195,-8.17356,3.13365,59.8087,20.2759,21.3548
59.407,-0.114025,-8.18978,3.08182,57.4006,21.6854,21.5286
59.411,-0.0796102,-8.27706,3.06366,55.1919,22.9458,21.8788
59.417,-0.00571819,-8.30282,3.12406,53.0792,23.791,22.2976
59.422,0.0662991,-8.40364,3.25733,50.6565,24.3593,22.8323
59.427,0.192025,-8.54628,3.39897,48.3888,24.5037,23.5725
59.432,0.340426,-8.72685,3.48794,46.1254,24.3771,23.8047
59.437,0.427435,-8.85617,3.55539,44.4931,24.2711,24.0385
59.442,0.439635,-8.93032,3.53694,43.1692,24.3058,24.1483
59.447,0.478016,-8.89347,3.45025,41.9138,24.7869,24.0938
59.452,0.491484,-8.81087,3.46671,40.3317,25.3194,24.1559
59.457,0.513517,-8.75289,3.53551,37.9332,25.7194,24.2892
59.462,0.56179,-8.74795,3.62594,35.1606,25.8048,24.7267
59.467,0.613704,-8.79257,3.64558,32.734,25.7832,25.0628
59.473,0.6439,-8.76883,3.6746,30.6946,25.4979,25.1616
59.478,0.639442,-8.67096,3.61657,28.9646,25.6708,25.3189
59.483,0.670138,-8.57132,3.55845,27.0982,25.8943,25.1036
59.488,0.734555,-8.52886,3.55474,24.684,26.2602,24.8883
59.493,0.746298,-8.55754,3.49244,21.8288,26.9446,24.448
59.498,0.830302,-8.64495,3.46786,18.8772,27.8856,23.848
59.503,0.866662,-8.74119,3.52931,15.7609,28.7952,23.344
59.508,0.860779,-8.84392,3.52538,12.8269,29.3853,22.66
59.514,0.863436,-8.94456,3.59467,10.0116,29.9357,22.1669
59.519,0.907729,-9.03486,3.55287,7.60633,30.258,21.2929
59.524,0.908958,-9.11221,3.51762,4.95662,30.4772,20.3545
59.529,0.938593,-9.19528,3.50177,2.20698,30.8616,19.4152
59.534,1.02372,-9.29072,3.50392,-0.953973,30.9979,18.5829
59.539,1.06379,-9.48563,3.56396,-4.46206,30.9239,17.6693
59.544,1.1388,-9.68765,3.62985,-8.21919,30.5193,16.8421
59.55,1.2342,-9.87726,3.7347,-11.9142,29.8574,15.7274
59.555,1.31562,-10.0363,3.83466,-15.3695,28.7312,14.5618
59.56,1.40062,-10.2039,3.89838,-18.742,27.6093,13.3066
59.565,1.46581,-10.3023,3.95373,-22.4227,26.1654,12.0007
59.57,1.54166,-10.3371,4.09376,-26.3064,24.6207,10.5855
59.575,1.64965,-10.4555,4.155,-30.396,23.0426,9.31122
59.58,1.72791,-10.4891,4.23861,-34.8745,21.433,8.17512
59.585,1.81466,-10.5722,4.36024,-39.4093,19.7647,6.65193
59.591,1.90918,-10.605,4.42629,-44.3093,18.078,5.04016
59.596,1.96134,-10.6631,4.53027,-49.4921,16.5586,3.42474
59.601,2.02703,-10.6486,4.74811,-54.839,14.8267,1.73076
59.606,1.99278,-10.5671,4.97484,-60.2896,13.01,0.103169
59.611,2.00424,-10.476,5.13985,-65.7273,10.9549,-1.19182
59.616,2.07969,-10.2927,5.36841,-70.988,8.5341,-2.34132
59.621,2.09176,-10.0965,5.57173,-75.8893,5.9265,-3.16816
59.626,2.10909,-9.81452,5.69933,-80.4452,3.23441,-4.01315
59.631,2.08759,-9.538,5.85604,-84.7606,0.395336,-4.72627
59.637,2.0555,-9.23271,5.99784,-88.7938,-2.5885,-5.35249
59.641,2.04997,-8.90098,6.08721,-92.305,-5.68276,-5.58539
59.647,1.98127,-8.61493,6.08996,-94.8841,-8.77573,-5.53993
59.651,1.95063,-8.31,6.01787,-96.9296,-11.5691,-5.56931
59.657,1.8876,-7.99605,5.98158,-98.0951,-14.0111,-5.68355
59.661,1.86916,-7.65855,5.97451,-99.1159,-15.8451,-5.46848
59.667,1.74298,-7.47042,5.78903,-99.9832,-17.1145,-5.58283
59.672,1.63956,-7.18637,5.42705,-100.226,-17.2625,-5.81384
59.677,1.56275,-6.90483,5.21339,-100.492,-16.7438,-5.28625
59.682,1.44349,-6.74763,5.07843,-100.986,-15.5317,-5.35054
59.686,1.40256,-6.5909,4.93744,-101.949,-14.4228,-5.43701
59.692,1.34604,-6.49824,4.83112,-103.32,-13.312,-5.48389
59.696,1.3152,-6.45876,4.78504,-104.518,-12.7945,-5.23473
59.702,1.30636,-6.48867,4.82108,-105.259,-12.5839,-4.49516
59.706,1.32436,-6.55905,4.84728,-105.251,-12.8686,-3.83708
59.712,1.34199,-6.62063,4.90619,-104.863,-13.9394,-3.36505
59.717,1.38773,-6.76911,5.05203,-104.399,-15.5056,-2.84785
59.721,1.47001,-6.94333,5.19118,-103.663,-18.0342,-2.29149
59.727,1.53349,-7.19606,5.35479,-102.59,-21.261,-1.54298
59.731,1.60374,-7.47617,5.58202,-101.132,-24.9101,-1.12324
59.737,1.64685,-7.78879,5.78262,-99.1958,-29.443,-0.638412
59.741,1.74684,-8.10638,5.91153,-97.1797,-34.2441,-0.259285
59.747,1.82655,-8.47317,6.07804,-94.8343,-39.1639,-0.246738
59.751,1.93743,-8.79178,6.11262,-92.2853,-44.1639,-0.299597
59.756,1.96102,-9.12815,6.09839,-89.5034,-48.6864,-0.612785
59.762,1.99955,-9.46624,6.03917,-86.9779,-52.7562,-1.14044
59.766,1.95214,-9.80878,5.95914,-84.3368,-56.1722,-2.11137
59.772,1.96987,-10.1347,5.91394,-81.7249,-58.8631,-3.32301
59.776,1.99128,-10.4175,5.86771,-79.0755,-60.6772,-5.03895
59.782,1.95366,-10.6196,5.77095,-76.2902,-61.576,-7.00035
59.786,1.94328,-10.7252,5.74317,-73.5739,-61.6154,-9.14964
59.792,1.92146,-10.7825,5.77242,-70.9095,-60.965,-11.3963
59.797,1.94345,-10.7903,5.79233,-68.4783,-59.6677,-13.9094
59.802,1.96233,-10.7485,5.8444,-65.9218,-57.7064,-16.1085
59.807,1.95308,-10.6322,5.80241,-63.3379,-55.1422,-18.3359
59.811,2.03104,-10.4349,5.75354,-61.0745,-51.8231,-20.3235
59.817,2.06915,-10.2576,5.79736,-59.4247,-48.0143,-21.6901
59.821,2.07341,-10.0196,5.79987,-57.6885,-43.2713,-22.6819
59.827,2.15131,-9.76715,5.79929,-56.2357,-37.8399,-23.2368
59.831,2.20578,-9.56582,5.8333,-55.3915,-32.2126,-23.7621
59.837,2.27904,-9.36005,5.89788,-54.8274,-26.1455,-24.2749
59.842,2.30309,-9.24307,5.87361,-53.9333,-19.3586,-24.5313
59.847,2.26713,-9.0898,5.82835,-52.9783,-12.2853,-24.5513
59.852,2.20548,-8.94496,5.78508,-52.0423,-4.99752,-24.4952
59.857,2.11811,-8.77197,5.66725,-51.3526,2.23209,-24.3368
59.862,1.97052,-8.619,5.61029,-50.6937,9.10747,-23.7255
59.867,1.8274,-8.47567,5.57,-50.3144,14.7769,-23.0157
59.873,1.60642,-8.41824,5.54501,-49.8709,19.0195,-22.233
59.878,1.5015,-8.36192,5.44444,-48.8723,21.9965,-21.4156
59.883,1.47099,-8.22877,5.338,-47.0489,24.6399,-20.1859
59.888,1.47412,-8.12436,5.31338,-45.8739,27.7722,-18.7826
59.893,1.43315,-8.03566,5.34511,-45.7659,30.75,-18.2883
59.898,1.41315,-7.97098,5.45375,-45.8826,33.3877,-18.0178
59.903,1.35131,-8.01807,5.6096,-45.9932,35.4459,-17.1885
59.908,1.22283,-8.07315,5.84053,-45.7692,36.3071,-16.5242
59.914,1.05637,-8.10586,5.95273,-45.1004,35.6353,-15.4414
59.919,1.04749,-8.06221,6.16188,-44.0246,34.4628,-14.7553
59.924,1.20249,-8.03678,6.28657,-42.4184,34.1021,-14.9529
59.929,1.24862,-7.95177,6.36592,-41.3482,34.1127,-15.793
59.934,1.17554,-7.92096,6.47606,-41.2221,34.0743,-16.0941
59.939,0.946976,-7.95235,6.57669,-40.9358,32.8738,-15.7224
59.944,0.614223,-8.00064,6.69121,-39.7837,29.7188,-14.8135
59.949,0.350644,-8.00245,6.69575,-37.9593,24.7822,-13.9529
59.955,0.323761,-7.91285,6.63619,-36.309,18.3397,-13.4926
59.96,0.315756,-7.9415,6.5035,-34.9932,11.6296,-12.6063
59.965,0.382272,-8.02423,6.36518,-33.8203,6.07078,-12.211
59.97,0.465251,-8.08473,6.21052,-32.948,1.81452,-12.5281
59.975,0.479793,-8.12932,6.16308,-32.0421,-1.47498,-13.0163
59.98,0.477968,-8.14456,6.16717,-31.2908,-4.18201,-13.6187
59.985,0.442852,-8.13389,6.17442,-30.5813,-6.70999,-14.0014
59.99,0.425592,-8.13673,6.26269,-29.7947,-9.43863,-14.2399
59.995,0.467541,-8.17654,6.31251,-28.9334,-12.4817,-14.2586
60.001,0.513196,-8.2268,6.31956,-27.743,-15.4623,-14.4693
60.006,0.584614,-8.23125,6.34612,-26.3454,-17.9333,-14.5469
60.011,0.663293,-8.19963,6.34198,-24.9654,-20.0536,-14.5405
60.016,0.722738,-8.18857,6.32563,-23.8455,-21.6312,-14.4152
60.021,0.741478,-8.16989,6.36992,-22.5809,-22.9406,-14.2265
60.026,0.765248,-8.14826,6.39945,-21.5366,-23.8413,-13.9717
60.031,0.788843,-8.16223,6.414,-20.5132,-24.4827,-13.4743
60.036,0.763271,-8.18665,6.39575,-19.6928,-24.8849,-12.8201
60.042,0.760585,-8.18672,6.36064,-18.2785,-24.8601,-12.0956
60.047,0.778379,-8.1511,6.37229,-16.8766,-24.438,-11.6125
60.052,0.788597,-8.14872,6.32966,-15.574,-23.3523,-10.7732
60.057,0.808436,-8.18318,6.25498,-14.2886,-22.097,-10.0245
60.061,0.76348,-8.18372,6.27216,-13.0213,-20.6496,-9.28311
60.067,0.801982,-8.19775,6.24832,-11.978,-19.0437,-8.40826
60.071,0.774971,-8.28112,6.28454,-10.9541,-17.3819,-7.54864
60.077,0.779612,-8.39674,6.31579,-9.87314,-16.0238,-6.65113
60.081,0.776272,-8.49586,6.36002,-8.6524,-14.9649,-5.80549
60.087,0.819914,-8.65853,6.41843,-7.27043,-13.966,-4.89711
60.092,0.847096,-8.84344,6.49319,-5.79049,-13.4272,-4.08702
60.096,0.895384,-9.00681,6.56236,-4.457,-13.1117,-3.17365
60.102,0.926787,-9.22269,6.65254,-3.10119,-12.9195,-2.49499
60.106,0.961797,-9.44723,6.7065,-1.52707,-13.0909,-1.71578
60.112,0.9912,-9.66061,6.82754,0.270043,-13.3983,-0.986749
60.116,0.997932,-9.86876,6.86273,2.08995,-13.6703,-0.401155
60.122,1.0108,-10.0678,6.92358,3.82617,-14.2641,0.0915087
60.126,1.07233,-10.2848,7.02844,5.46348,-14.7152,0.499866
60.131,1.05274,-10.4382,7.04854,7.28481,-15.1909,0.827527
60.137,1.07633,-10.567,7.08357,9.24781,-15.6708,1.2026
60.141,1.04414,-10.6765,7.12679,11.44,-15.9231,1.38475
60.147,1.04177,-10.7453,7.12776,13.4315,-15.8225,1.64825
60.151,1.03645,-10.8354,7.09237,15.2162,-15.733,2.13593
60.157,0.972122,-10.9597,7.02695,16.9828,-15.4513,2.61627
60.161,0.884256,-11.045,6.96127,18.6282,-15.2438,2.98112
60.167,0.845215,-11.1787,6.90568,20.392,-15.2346,3.44555
60.172,0.793224,-11.3006,6.87132,22.1343,-15.1247,4.06138
60.177,0.826627,-11.4307,6.88927,23.7755,-14.9859,4.66825
60.182,0.779858,-11.5615,6.93103,25.3571,-14.6573,5.31268
60.186,0.786471,-11.6654,6.94511,27.1414,-14.3865,5.97493
60.192,0.825927,-11.7046,7.05786,28.9247,-14.0932,6.72053
60.196,0.823096,-11.736,7.11893,30.6833,-14.1305,7.51034
60.202,0.846527,-11.7056,7.18117,32.802,-14.1956,8.71412
60.206,0.837536,-11.6437,7.18893,35.1037,-14.2628,9.92044
60.212,0.832999,-11.5441,7.13744,37.5029,-14.6089,11.2031
60.217,0.844277,-11.3323,7.0734,39.8859,-14.4681,12.5778
60.221,0.779686,-11.1331,6.94527,42.1054,-14.3808,13.9651
60.227,0.738177,-10.989,6.83575,44.0177,-14.2983,15.4842
60.231,0.665038,-10.8268,6.71749,45.785,-14.3026,17.1147
60.237,0.590037,-10.6656,6.61703,47.6926,-14.7874,18.5186
60.242,0.503365,-10.5843,6.48886,49.5741,-15.3989,20.2247
60.247,0.427871,-10.4516,6.3996,51.4769,-15.7714,22.0454
60.252,0.382849,-10.2881,6.32691,53.3218,-16.1576,23.6455
60.257,0.270572,-10.217,6.19418,54.9379,-16.9527,25.2641
60.262,0.207339,-10.0986,6.01771,56.6757,-17.855,26.8235
60.267,0.203782,-9.9686,5.92294,58.5804,-18.6122,28.2116
60.272,0.21488,-9.79246,5.84397,60.4824,-19.3021,29.8495
60.277,0.248176,-9.62343,5.88294,62.011,-20.3291,31.7084
60.283,0.292154,-9.44415,5.96488,63.1731,-21.8505,33.2049
60.288,0.369106,-9.33704,6.02807,64.4702,-23.8988,34.8004
60.293,0.439391,-9.24517,5.98652,65.7615,-26.4919,36.3638
60.298,0.529861,-9.20315,5.94815,67.1552,-29.1364,37.8529
60.303,0.58973,-9.14926,5.93428,68.5079,-31.9645,39.2123
60.308,0.631132,-9.15433,5.93961,69.5616,-34.4781,40.394
60.313,0.596344,-9.11158,5.94875,70.8285,-37.1383,40.7684
60.318,0.622727,-9.07989,5.91593,72.2847,-39.4367,41.0025
60.324,0.602682,-9.0728,5.87169,73.6824,-41.5678,41.1908
60.329,0.518345,-9.07681,5.735,74.7809,-43.3845,41.2016
60.334,0.498929,-9.09805,5.62473,75.6045,-44.7152,40.8993
60.339,0.4498,-9.20275,5.5156,76.332,-45.6309,40.5287
60.344,0.379416,-9.33796,5.41797,76.7451,-46.1076,39.7232
60.349,0.297885,-9.47277,5.3166,77.1096,-45.8033,38.6617
60.354,0.296317,-9.58762,5.22477,77.4385,-45.2961,37.4109
60.359,0.269555,-9.74383,5.18592,77.5903,-44.4232,36.0148
60.365,0.275845,-9.85315,5.21899,77.6262,-43.2379,34.4438
60.37,0.220326,-9.99488,5.19345,77.6191,-42.1911,32.9095
60.375,0.240089,-10.0624,5.20839,77.8353,-41.2805,31.3252
60.38,0.221372,-10.1961,5.1846,78.0888,-40.6176,29.7633
60.385,0.233995,-10.2808,5.12689,78.7719,-39.8987,28.1019
60.39,0.231808,-10.2872,5.16369,79.3698,-39.2979,26.6054
60.395,0.231444,-10.3051,5.17554,79.9844,-38.6854,25.3741
60.401,0.197131,-10.3138,5.11083,80.7204,-37.999,24.2585
60.406,0.236947,-10.292,5.02472,81.3321,-37.3192,23.2773
60.411,0.233464,-10.252,4.96476,81.7557,-36.6835,22.6188
60.416,0.232034,-10.2369,4.96418,82.2201,-35.8645,22.0901
60.421,0.253681,-10.2153,4.92001,82.5852,-34.7215,21.6517
60.426,0.289404,-10.2275,4.86758,82.7676,-33.4179,21.3021
60.431,0.300498,-10.1788,4.80193,83.1142,-31.9017,21.031
60.436,0.291673,-10.108,4.80377,83.5663,-30.0058,20.7928
60.442,0.268736,-9.96828,4.73073,83.6365,-27.46,20.7327
60.446,0.238013,-9.80319,4.6648,83.8761,-24.3155,20.6917
60.452,0.218451,-9.62596,4.60975,83.8546,-20.606,20.853
60.456,0.278651,-9.45176,4.55641,83.3294,-16.1395,21.2514
60.462,0.241727,-9.26737,4.49222,82.588,-11.0143,21.6484
60.467,0.233085,-9.12606,4.42593,81.6905,-5.44286,21.9235
60.471,0.201618,-8.99665,4.38365,80.5843,0.16262,22.5892
60.477,0.181865,-8.82834,4.3345,79.7392,5.5429,23.3186
60.481,0.163739,-8.68039,4.26631,78.769,10.5991,24
60.487,0.193987,-8.4819,4.20609,78.02,15.5643,24.7978
60.491,0.121045,-8.37236,4.14414,77.3243,20.3157,25.9669
60.497,0.0880133,-8.25103,4.09349,76.3223,24.7002,26.9184
60.501,0.0982647,-8.12125,4.03754,75.3147,28.8797,28.1042
60.506,0.0877022,-8.04078,4.05781,74.1597,32.8584,29.4764
60.512,0.0678339,-7.99809,4.02854,73.2017,36.2343,30.8348
60.516,0.0500996,-7.92054,3.98987,72.3615,39.253,32.2014
60.522,-0.0595506,-7.88244,3.98187,71.7639,41.74,33.2672
60.526,-0.139907,-7.84456,3.93566,71.2257,44.037,34.2955
60.532,-0.187909,-7.81567,3.85365,70.5377,45.6797,35.3198
60.536,-0.27773,-7.80605,3.88864,69.3515,46.6611,36.5169
60.541,-0.331878,-7.78032,3.89863,68.2171,46.9528,37.8113
60.547,-0.364778,-7.77145,3.97305,67.212,46.1727,39.1727
60.552,-0.366071,-7.7539,4.07706,66.4592,44.5313,40.7247
60.557,-0.327575,-7.73526,4.19175,65.9004,42.0145,42.2468
60.561,-0.298339,-7.74194,4.26405,65.4404,39.0152,43.5873
60.567,-0.30348,-7.67556,4.3408,65.0993,35.6361,44.8526
60.571,-0.289521,-7.67936,4.36654,65.0631,31.808,45.7957
60.577,-0.282782,-7.5836,4.3057,64.9892,28.2276,46.716
60.581,-0.302085,-7.51411,4.25867,64.7736,24.6514,47.589
60.587,-0.233952,-7.44293,4.24023,64.1933,21.2157,48.4647
60.592,-0.219555,-7.36905,4.18538,63.3352,17.9935,49.0115
60.596,-0.165161,-7.32605,4.10072,62.1947,14.7572,49.38
60.602,-0.105138,-7.38245,3.9903,60.7758,11.5758,49.3283
60.606,-0.0885746,-7.45623,3.89112,59.4635,8.41177,48.9601
60.612,-0.0513775,-7.55121,3.78383,57.9556,5.30699,48.082
60.616,-0.0165487,-7.56082,3.68508,56.5518,2.44576,47.2288
60.622,0.00475975,-7.54455,3.65988,54.994,-0.0142574,46.0868
60.626,0.0418086,-7.52928,3.64916,52.9305,-2.35202,44.8167
60.631,0.0830505,-7.5308,3.66757,50.6841,-4.68781,43.5441
60.637,0.0923876,-7.53391,3.68255,48.2588,-6.95268,42.0267
60.641,0.101316,-7.54066,3.72306,46.0366,-9.1167,40.6185
60.647,0.109116,-7.53941,3.73685,43.7725,-11.4416,39.1639
60.652,0.0705047,-7.50939,3.78094,41.4099,-13.8051,37.4504
60.657,0.0536466,-7.48191,3.86455,38.8624,-16.1215,35.9008
60.662,0.127168,-7.5522,3.91593,36.206,-18.5691,34.7431
60.667,0.265258,-7.58357,3.9505,33.2872,-20.9278,33.5137
60.672,0.313227,-7.65159,4.00447,30.6574,-23.4298,31.8792
60.677,0.379357,-7.71951,4.01652,28.0305,-25.6593,30.2607
60.682,0.403193,-7.77968,3.97689,25.2071,-27.4672,28.4815
60.688,0.45989,-7.90853,3.9316,22.3057,-29.052,26.6411
60.693,0.545375,-8.06614,3.85931,19.3064,-30.1767,24.8992
60.698,0.583664,-8.26984,3.81296,16.0716,-30.7682,22.9659
60.703,0.638558,-8.48151,3.7163,12.8601,-31.1655,20.9806
60.708,0.67937,-8.70006,3.59329,9.61196,-31.3375,18.8894
60.713,0.731323,-8.9005,3.59883,6.48417,-31.413,16.997
60.718,0.817145,-9.13497,3.66657,3.35449,-31.4435,15.2712
60.724,0.916133,-9.35983,3.71431,-0.0433809,-31.59,13.7079
60.729,1.02591,-9.61711,3.76391,-2.99329,-31.7139,12.1435
60.734,1.0669,-9.74071,3.81526,-5.59793,-31.9223,10.561
60.739,1.08741,-9.84667,3.86162,-7.81174,-31.8044,8.93968
60.744,1.15797,-9.95083,3.86946,-9.98326,-31.3669,7.45604
60.749,1.16561,-10.0527,3.81284,-12.2736,-30.5497,6.04752
60.754,1.15591,-10.2276,3.68448,-14.845,-29.2704,4.7346
60.759,1.15831,-10.4481,3.56507,-17.4341,-27.9802,3.23983
60.765,1.18765,-10.719,3.53326,-20.607,-26.1635,1.73047
60.77,1.20455,-10.9639,3.49776,-23.9198,-24.0476,0.272957
60.775,1.20769,-11.1901,3.54831,-27.1389,-22.4607,-1.04081
60.78,1.30084,-11.3244,3.6277,-30.0365,-20.9713,-2.14579
60.785,1.36607,-11.357,3.73195,-32.5708,-19.7585,-3.26147
60.79,1.45522,-11.2647,3.93609,-34.9472,-18.6971,-4.15569
60.795,1.58393,-11.1661,4.17054,-37.8032,-17.9901,-4.51267
60.8,1.71372,-11.1679,4.36194,-41.3007,-18.0763,-4.75231
60.806,1.80294,-11.1574,4.49694,-44.4329,-18.4841,-5.1693
60.811,1.87078,-11.0606,4.62949,-46.8757,-18.6986,-5.27295
60.816,1.90999,-10.9039,4.69287,-49.0755,-18.9464,-5.32037
60.821,1.84961,-10.6497,4.76044,-51.1692,-18.9955,-5.50947
60.826,1.80514,-10.3259,4.77435,-53.406,-18.8366,-5.48806
60.831,1.76742,-10.0214,4.74791,-55.4403,-18.3958,-5.1829
60.836,1.7148,-9.74354,4.73901,-57.1688,-17.7467,-4.75159
60.841,1.59205,-9.49293,4.5858,-58.6044,-16.6511,-4.5269
60.846,1.41296,-9.27638,4.43766,-59.5659,-15.0661,-4.33949
60.852,1.23062,-9.19342,4.18869,-60.557,-12.9144,-4.48405
60.856,1.16146,-9.10205,3.95978,-61.8473,-10.4485,-4.80627
60.862,1.1399,-8.98166,3.77618,-63.1988,-7.40792,-4.65823
60.866,1.07926,-8.98894,3.65468,-64.4633,-3.95425,-4.57611
60.872,1.0347,-8.89759,3.60498,-65.628,-0.665618,-4.49294
60.876,1.17189,-8.79284,3.69754,-66.9428,2.48957,-3.97314
60.881,1.24856,-8.79362,3.80738,-68.3452,5.07292,-3.47891
60.887,1.31398,-8.91148,3.82938,-69.3795,7.26739,-3.41199
60.891,1.40453,-9.04768,3.86715,-69.8076,9.15194,-3.29937
60.897,1.47107,-9.16532,3.81193,-69.771,10.731,-3.18854
60.901,1.4963,-9.17298,3.82831,-69.5909,12.2609,-3.19694
60.907,1.46764,-9.17442,3.82136,-69.6575,13.5739,-3.19429
60.911,1.36352,-9.21975,3.80785,-69.9337,14.2636,-3.24937
60.916,1.30657,-9.31972,3.80261,-70.4578,14.4191,-3.47608
60.922,1.31589,-9.45025,3.83092,-71.1269,14.1476,-3.85736
60.926,1.28545,-9.63095,3.91792,-72.0209,13.7173,-4.28774
60.932,1.31988,-9.77984,3.96198,-73.4038,13.0808,-4.84688
60.936,1.43886,-9.82327,4.20659,-75.3045,11.8389,-5.24851
60.942,1.51093,-9.82134,4.63841,-77.6602,10.2331,-5.42292
60.946,1.64185,-9.88081,5.15412,-80.3102,7.7046,-5.66465
60.952,1.70765,-9.90519,5.67014,-82.5194,4.51754,-5.94729
60.956,1.82061,-9.86107,6.07,-84.4489,1.07207,-6.06764
60.962,1.9215,-9.773,6.45435,-86.063,-2.49485,-5.57049
60.967,1.96025,-9.69604,6.81995,-87.3843,-5.61524,-5.28001
60.971,2.04618,-9.66329,6.86821,-88.2434,-7.69045,-5.17681
60.977,2.04286,-9.55279,6.74013,-88.4427,-7.54127,-5.35341
60.981,2.06103,-9.32879,6.53956,-88.5608,-3.91526,-5.61771
60.987,1.97291,-9.13591,6.2655,-89.2159,3.26871,-5.37276
60.991,1.84338,-8.90529,6.12464,-90.4432,13.6922,-5.24828
60.997,1.63491,-8.65407,6.15977,-92.2589,27.5024,-5.4183
61.001,1.24048,-8.48174,6.18251,-94.6568,43.5985,-5.76447
61.006,0.801031,-8.39645,6.27033,-96.5083,60.8804,-6.37971
61.012,0.433651,-8.32549,6.44353,-97.7312,78.0692,-6.91801
61.016,-0.0204437,-8.19008,6.92464,-98.0639,92.9541,-7.49535
61.022,-0.465094,-7.88325,7.88585,-96.9064,103.238,-7.75342
61.026,-0.90199,-7.52827,9.0131,-93.605,108.193,-7.04152
61.032,-1.34207,-7.08697,10.096,-88.2751,108.291,-5.44307
61.036,-1.79898,-6.6591,11.2279,-81.5264,104.088,-2.57918
61.041,-2.26653,-6.45666,12.1433,-74.8006,95.6376,1.38559
61.047,-2.54443,-6.58591,12.7154,-68.1655,84.7195,5.47879
61.052,-2.6479,-6.8879,13.2377,-60.6336,73.1448,8.95447
61.057,-2.8354,-7.15805,13.9645,-50.7676,61.5769,11.4265
61.062,-3.32863,-7.30062,14.8395,-38.6648,48.1507,12.5474
61.067,-3.84419,-7.30938,15.4851,-26.1511,31.8848,13.992
61.072,-4.33348,-7.33582,15.8411,-14.1391,12.1187,16.4647
61.077,-4.48336,-7.31915,15.7296,-3.44296,-8.7583,18.9988
61.082,-4.14045,-7.14909,15.1088,5.99482,-26.4978,20.9405
61.088,-3.64211,-7.15516,14.3161,12.6503,-38.4854,21.3437
61.093,-3.32999,-7.31531,13.6962,15.9818,-44.5548,19.8
61.098,-3.26413,-7.42907,13.4645,17.987,-46.0465,16.4252
61.103,-3.45987,-7.46158,13.6149,20.5113,-45.3321,12.6398
61.108,-3.72241,-7.5252,13.8326,23.9489,-45.1863,10.0016
61.113,-3.7979,-7.58157,13.8189,27.9022,-46.1183,8.867
61.118,-3.55291,-7.5915,13.4314,31.5024,-45.9248,9.12353
61.123,-3.12132,-7.50355,12.9143,34.5099,-42.4134,9.32769
61.129,-2.75971,-7.43845,12.6904,36.4083,-34.9287,9.11793
61.134,-2.65959,-7.38808,12.7656,37.2371,-24.8881,8.87703
61.139,-2.7656,-7.48403,13.0675,38.1031,-14.9141,8.83351
61.144,-2.90471,-7.74009,13.3244,40.1705,-7.09424,9.8763
61.149,-2.89156,-7.99947,13.3174,43.6679,-1.69969,11.4554
61.154,-2.64649,-8.14679,13.0406,48.3119,3.08269,13.4809
61.159,-2.50363,-8.19213,12.6159,53.444,8.09371,15.7183
61.164,-2.51718,-8.25428,12.1764,58.2512,13.4508,18.1717
61.17,-2.65568,-8.40461,11.6892,62.8054,18.5674,21.0447
61.175,-2.75492,-8.5664,11.244,67.5254,22.5682,24.2653
61.18,-2.84039,-8.76758,10.8097,72.5192,25.7655,27.6164
61.185,-2.8893,-8.90802,10.3208,78.0166,28.5457,30.9963
61.19,-2.876,-9.05977,9.94085,83.6302,31.0137,34.5511
61.195,-2.84511,-9.19729,9.57133,89.2009,33.0033,37.8769
61.2,-2.72358,-9.29204,9.26145,94.3835,34.9391,41.2574
61.205,-2.67695,-9.43057,8.90641,99.5803,36.2743,44.6218
61.21,-2.54949,-9.57841,8.58637,104.512,37.5844,47.9892
61.216,-2.33463,-9.72286,8.30148,108.69,38.4825,51.0574
61.221,-2.09728,-9.90158,7.97697,112.114,38.9908,53.9089
61.226,-1.8405,-10.1391,7.70013,115.334,39.4437,56.8186
61.231,-1.6759,-10.3476,7.4179,118.399,39.9576,59.1731
61.236,-1.39565,-10.4682,7.15538,121.258,40.0982,61.4026
61.241,-1.1753,-10.5484,6.98304,123.425,40.1131,63.569
61.246,-1.03157,-10.6829,6.65257,125.221,39.5645,65.6146
61.251,-0.805035,-10.7535,6.27771,126.973,38.9,67.7803
61.256,-0.483827,-10.8664,5.83815,128.48,37.9738,69.7906
61.262,-0.117177,-10.9768,5.34931,129.478,36.761,71.6491
61.267,0.155327,-11.084,4.85857,130.171,35.2949,73.2144
61.272,0.459526,-11.1903,4.2732,130.836,33.8747,74.0079
61.276,0.658515,-11.1265,3.69688,131.372,32.6425,73.9442
61.282,0.886076,-11.0453,3.14777,131.123,31.4731,73.4071
61.286,1.32505,-10.8323,2.65669,129.685,29.9482,73.0871
61.292,1.63621,-10.6679,2.24746,127.976,28.5246,72.0217
61.297,1.92962,-10.4935,1.74411,125.526,27.5524,70.3787
61.302,2.16898,-10.3033,1.34816,122.523,27.1211,68.0026
61.307,2.23268,-10.2078,1.09856,118.212,27.5431,65.2917
61.311,2.30023,-10.221,0.945026,112.575,28.4898,61.799
61.317,2.34707,-10.2254,0.79237,106.276,29.6647,57.7899
61.321,2.42154,-10.1481,0.558344,99.9038,31.3132,53.6528
61.327,2.4872,-10.0741,0.381231,93.2075,33.1038,49.4731
61.331,2.44567,-9.98327,0.229961,86.0117,34.882,44.6656
61.337,2.45945,-9.91374,0.102598,78.0615,36.6103,39.9077
61.342,2.48291,-9.93018,0.0125718,69.5975,38.3231,35.5058
61.346,2.49978,-9.96588,0.0329183,60.55,39.2567,31.4417
61.352,2.56321,-9.97229,-0.052348,51.6334,39.2548,27.4525
61.356,2.52762,-9.96126,-0.234657,43.8057,38.7855,23.7807
61.362,2.59636,-9.83016,-0.360463,36.6092,37.5523,20.9031
61.366,2.67336,-9.70839,-0.511734,29.5589,35.2591,18.3579
61.372,2.8528,-9.58673,-0.67937,22.9166,31.998,16.3912
61.376,3.09294,-9.41218,-0.807959,16.9227,27.4636,15.0437
61.381,3.28133,-9.22325,-0.990128,11.3663,22.5193,14.0799
61.387,3.47312,-9.04589,-1.08494,6.35536,17.3188,13.1913
61.391,3.64944,-8.86856,-1.10272,1.42716,12.1228,12.2131
61.397,3.69257,-8.79501,-1.15716,-3.33606,7.11663,11.2302
61.401,3.75982,-8.75603,-1.13886,-8.38269,2.11901,10.1523
61.407,3.71497,-8.86079,-1.10058,-13.2025,-2.76472,8.95698
61.411,3.65752,-8.92172,-1.03918,-17.3387,-7.21553,7.25017
61.416,3.65528,-8.96728,-1.03042,-21.4422,-11.0171,5.18971
61.422,3.61233,-8.97032,-1.04411,-25.4269,-14.0738,2.52732
61.427,3.57527,-8.93223,-0.991658,-29.7621,-16.3076,-0.584565
61.432,3.5055,-8.87634,-0.870698,-34.744,-17.9163,-3.51471
61.436,3.38817,-8.85772,-0.691091,-40.0427,-19.2,-6.80435
61.442,3.28905,-8.91478,-0.504903,-45.7809,-20.3687,-10.5769
61.446,3.1673,-9.04237,-0.356074,-51.2914,-21.4461,-14.5504
61.452,2.9528,-9.08755,-0.13229,-56.4857,-22.2227,-19.0486
61.457,2.8301,-9.13064,0.0393393,-61.9741,-22.2988,-23.7838
61.462,2.68835,-9.15868,0.213707,-67.9854,-21.5621,-28.2971
61.467,2.53901,-9.26728,0.409736,-74.3573,-20.2763,-32.7838
61.472,2.41108,-9.33047,0.706007,-80.8822,-17.9317,-37.1108
61.477,2.28871,-9.42375,1.03854,-87.5218,-15.1388,-41.6047
61.482,2.13617,-9.55498,1.32833,-93.7687,-12.0645,-46.3043
61.487,1.99623,-9.61735,1.79617,-99.6064,-8.69734,-50.9445
61.492,1.88932,-9.71279,2.27329,-104.852,-5.0163,-55.4383
61.498,1.76454,-9.8421,2.74532,-109.991,-0.66093,-59.8008
61.503,1.73351,-9.84264,3.12754,-114.514,3.70376,-64.4265
61.508,1.63868,-9.81975,3.52375,-118.821,7.90841,-68.6937
61.513,1.4715,-9.83707,3.92299,-122.853,11.6042,-72.732
61.518,1.2259,-9.79879,4.37652,-126.173,14.2686,-76.0804
61.523,0.917906,-9.77879,4.82375,-129.126,16.1212,-78.7148
61.528,0.571858,-9.79022,5.33867,-131.615,16.7249,-80.6495
61.533,0.225064,-9.80253,5.79418,-133.684,15.6467,-81.9462
61.539,-0.132051,-9.80123,6.31255,-134.644,12.7396,-82.5583
61.544,-0.530015,-9.80294,6.89093,-134.556,7.87529,-82.6314
61.549,-0.948263,-9.88483,7.37493,-133.669,1.87135,-82.5216
61.554,-1.33791,-9.9613,7.65079,-131.831,-4.84411,-82.5661
61.559,-1.63398,-10.0471,7.84952,-129.749,-11.2758,-82.3723
61.564,-1.81952,-10.1327,8.13719,-127.965,-16.4181,-81.7247
61.569,-1.95248,-10.2522,8.4065,-126.688,-19.2492,-80.7678
61.574,-2.12616,-10.51,8.62496,-125.78,-19.261,-80.2631
61.58,-2.23924,-10.6864,8.90983,-125.247,-16.7946,-79.9836
61.585,-2.43556,-10.7871,9.27159,-124.561,-12.7437,-79.2355
61.59,-2.65367,-10.7969,9.55246,-123.41,-7.19413,-78.4846
61.595,-2.80545,-10.765,9.80529,-121.92,-1.93418,-77.5177
61.6,-2.82782,-10.6624,9.99836,-119.414,3.30875,-76.4456
61.605,-2.81572,-10.4744,10.3057,-116.173,8.63508,-75.5214
61.61,-2.92259,-10.2987,10.5482,-113.009,14.0259,-74.7495
61.616,-3.10157,-10.1211,10.6982,-110.092,19.5172,-73.7839
61.621,-3.46869,-9.88886,10.8666,-107.648,24.6551,-72.7737
61.626,-4.03087,-9.77907,11.1814,-105.538,27.7212,-71.342
61.631,-4.67618,-9.59278,11.6713,-102.977,27.474,-69.9049
61.636,-5.23627,-9.35612,12.2747,-99.1949,23.9967,-68.1644
61.641,-5.65353,-9.12012,12.8273,-94.1151,17.769,-65.4436
61.646,-5.9062,-8.8791,13.2647,-88.4356,9.58448,-62.0987
61.651,-6.07298,-8.67535,13.5902,-82.6899,0.268085,-58.5818
61.657,-6.14521,-8.43808,13.8025,-76.8794,-8.8519,-55.1618
61.661,-6.09135,-8.11596,13.9724,-71.1894,-17.7284,-51.6748
61.667,-6.06538,-7.85204,14.0418,-65.863,-26.1471,-48.0024
61.672,-6.06236,-7.74586,14.0237,-61.269,-34.2177,-44.0746
61.677,-6.15811,-7.76093,13.7846,-56.5689,-42.4296,-40.5545
61.682,-6.16918,-7.75191,13.4488,-51.3697,-50.0028,-37.2905
61.686,-6.13749,-7.66053,13.0912,-45.6103,-56.3111,-33.7804
61.692,-6.04976,-7.50781,12.886,-40.4695,-61.2328,-30.0254
61.697,-5.88671,-7.33013,12.7908,-36.198,-65.2344,-25.9472
61.701,-5.6343,-7.09812,12.7416,-32.3654,-68.2828,-21.7288
61.706,-5.42477,-6.87738,12.7826,-28.4359,-69.9644,-17.5205
61.712,-5.20402,-6.63984,12.7176,-24.5754,-70.4467,-13.2342
61.716,-5.05623,-6.43082,12.6031,-21.3608,-69.2018,-9.37642
61.721,-4.89996,-6.36735,12.4439,-18.8771,-66.3479,-5.78203
61.727,-4.75525,-6.367,12.3753,-17.1911,-62.3765,-2.45353
61.732,-4.60574,-6.43242,12.3665,-15.7841,-57.9879,0.803994
61.736,-4.50573,-6.66131,12.226,-14.2507,-53.4789,3.85165
61.741,-4.43263,-6.88708,12.0737,-12.0407,-48.8783,6.61397
61.747,-4.44183,-7.08845,11.8859,-9.36989,-44.8332,9.44197
61.752,-4.53326,-7.26364,11.6689,-5.80557,-41.5362,11.8113
61.756,-4.58923,-7.40677,11.4473,-1.59788,-38.9556,14.1576
61.762,-4.61728,-7.50835,11.2078,2.74486,-36.9016,16.6028
61.767,-4.73866,-7.64855,10.9846,6.99965,-35.5782,18.9312
61.771,-4.87296,-7.77697,10.7827,11.2078,-35.3232,20.832
61.776,-4.95893,-7.894,10.5607,15.8963,-36.0192,22.5478
61.782,-4.97777,-8.0094,10.3355,20.7896,-36.9994,23.9402
61.787,-4.97975,-8.13981,10.0339,25.4576,-38.2971,25.1922
61.791,-4.98612,-8.26884,9.81953,29.2781,-39.6367,25.9096
61.797,-5.05018,-8.45775,9.57502,32.6116,-41.2275,26.3315
61.802,-5.07162,-8.6241,9.3776,35.7545,-43.656,26.6197
61.807,-5.19842,-8.77089,9.19476,39.0096,-46.9867,26.8844
61.811,-5.32025,-8.91295,9.00367,42.2952,-51.2464,27.1319
61.817,-5.43533,-9.00015,8.71718,45.9065,-55.8749,27.08
61.822,-5.49548,-9.06315,8.41068,49.2305,-60.7448,27.0008
61.826,-5.52111,-9.08358,8.17732,51.5332,-65.8029,27.0502
61.831,-5.4739,-9.05771,8.02004,52.9367,-71.3378,26.9946
61.837,-5.39885,-9.12416,7.96865,53.8666,-77.2033,27.0676
61.841,-5.33372,-9.26163,7.99594,54.5631,-83.7053,27.3096
61.846,-5.30602,-9.35218,8.1084,55.7408,-90.8409,27.5493
61.852,-5.2066,-9.41335,8.25582,56.8834,-98.3994,28.4837
61.857,-5.0874,-9.40649,8.30092,57.9731,-106.19,30.106
61.862,-5.03892,-9.37194,8.28864,59.3469,-113.67,32.0055
61.867,-4.96684,-9.30402,8.21499,60.2833,-120.401,33.7873
61.872,-4.95232,-9.22545,8.04309,61.122,-126.333,35.9335
61.877,-4.88088,-9.14764,7.91064,61.5239,-131.197,38.1443
61.882,-4.84164,-9.09105,7.78003,61.3589,-135.363,40.6971
61.887,-4.82993,-8.99657,7.5933,61.04,-138.449,43.4931
61.892,-4.83205,-8.88759,7.38144,60.8694,-141.017,46.285
61.898,-4.84185,-8.83676,7.10098,60.7604,-143.14,49.4047
61.903,-4.84551,-8.77677,6.84618,60.7605,-144.293,52.7556
61.908,-4.79302,-8.74501,6.55052,60.9739,-144.572,56.0967
61.913,-4.79631,-8.72051,6.24214,61.3774,-144.332,59.3892
61.918,-4.74475,-8.7067,5.99693,61.8034,-143.715,62.804
61.923,-4.73799,-8.67029,5.77668,62.4331,-142.839,66.4193
61.928,-4.77629,-8.68601,5.5384,63.6731,-142.024,70.0131
61.933,-4.74883,-8.67257,5.30353,65.3636,-140.912,73.6215
61.938,-4.75099,-8.60272,5.06365,67.5277,-139.47,77.1013
61.944,-4.71006,-8.5067,4.84523,69.8382,-137.805,80.4779
61.949,-4.63569,-8.38675,4.65233,71.8236,-135.952,83.9792
61.954,-4.51365,-8.26621,4.47733,73.8142,-133.714,87.4209
61.959,-4.45114,-8.18164,4.30436,75.5025,-131.432,90.669
61.964,-4.33196,-8.16656,4.2455,76.9097,-129.189,93.6558
61.969,-4.20423,-8.14121,4.15589,78.2561,-127.071,96.4972
61.974,-4.06366,-8.19988,4.10665,79.3033,-124.8,99.0701
61.979,-3.92237,-8.29688,4.0888,79.9036,-122.753,101.386
61.985,-3.81924,-8.37444,4.0758,80.1377,-121.043,103.431
61.99,-3.73849,-8.48872,4.03387,80.1428,-119.901,105.402
61.995,-3.64336,-8.69141,4.03348,80.4788,-119.081,106.75
62,-3.5324,-8.87019,4.06192,80.7804,-118.262,107.65
62.005,-3.45369,-9.056,4.10592,80.8834,-117.655,108.024
62.01,-3.33357,-9.24683,4.15524,80.6435,-117.01,108.249
62.015,-3.26743,-9.34965,4.25039,79.9945,-116.499,108.506
62.02,-3.25337,-9.47837,4.39403,79.3076,-116.079,108.475
62.026,-3.17541,-9.63231,4.51712,78.32,-115.641,108.167
62.031,-3.07269,-9.77508,4.5919,77.2741,-115.216,107.638
62.036,-3.00312,-9.92216,4.63585,75.7896,-114.519,106.718
62.041,-2.92056,-10.0686,4.66576,74.4512,-113.597,105.694
62.046,-2.84587,-10.1878,4.70929,72.7321,-112.388,104.499
62.051,-2.72902,-10.2905,4.72078,70.7324,-111.079,103.051
62.056,-2.65144,-10.4067,4.67582,68.5139,-109.384,101.585
62.061,-2.61174,-10.4839,4.63043,66.2805,-107.406,99.9531
62.067,-2.58143,-10.5295,4.59745,64.2952,-105.075,98.3184
62.072,-2.5583,-10.5513,4.52643,62.658,-102.556,96.6816
62.076,-2.48549,-10.4743,4.40824,61.0651,-99.762,95.0158
62.081,-2.40366,-10.4059,4.32405,59.5107,-96.8987,93.5552
62.087,-2.31019,-10.385,4.28087,58.0192,-93.7941,92.1644
62.091,-2.20892,-10.2747,4.21013,56.6527,-90.3656,90.8218
62.096,-2.08795,-10.1152,4.14041,55.2829,-87.0283,89.6377
62.102,-1.95914,-9.94202,4.09162,53.9703,-83.6547,88.7575
62.107,-1.84492,-9.76338,4.06226,52.9167,-80.4611,88.1076
62.111,-1.66472,-9.5342,4.03754,52.13,-76.9479,87.5532
62.116,-1.5135,-9.35275,3.99029,51.0995,-73.2195,87.1169
62.122,-1.41018,-9.23243,3.89584,50.2962,-69.3782,86.5632
62.127,-1.2954,-9.10703,3.78612,49.268,-65.3558,86.2264
62.131,-1.17661,-8.90663,3.67725,48.2359,-61.2432,86.2229
62.137,-1.045,-8.72269,3.66419,47.1634,-57.1554,86.1808
62.142,-0.893821,-8.60106,3.68571,45.787,-52.9807,86.112
62.146,-0.794671,-8.56045,3.70744,44.328,-49.1504,85.8668
62.151,-0.776424,-8.5621,3.65898,43.2203,-45.0409,85.461
62.157,-0.721184,-8.47269,3.55127,42.2566,-41.1618,84.7612
62.162,-0.737444,-8.37707,3.42355,41.2358,-36.9791,84.0236
62.166,-0.728359,-8.25174,3.3337,40.0938,-32.8704,83.1705
62.172,-0.741335,-8.11681,3.2305,38.5437,-28.9185,82.2657
62.177,-0.780377,-8.08221,3.19616,36.6018,-25.6103,81.2172
62.181,-0.868298,-8.11247,3.17878,34.3433,-23.1017,80.3362
62.186,-0.913593,-8.09173,3.23582,32.3811,-21.5197,79.3508
62.192,-0.923815,-8.0941,3.27845,30.697,-20.6724,78.2539
62.197,-0.980615,-8.05599,3.26051,29.0268,-20.4258,77.1403
62.201,-0.933319,-7.99321,3.35287,27.3928,-20.5632,76.0415
62.206,-0.891976,-7.95135,3.51044,25.5049,-21.2587,75.1797
62.212,-0.871574,-7.96125,3.63964,23.0397,-22.7098,74.247
62.216,-0.736873,-8.02416,3.77391,20.5451,-24.7187,73.5092
62.221,-0.675002,-8.15581,3.92239,18.3003,-27.7029,73.0373
62.227,-0.600263,-8.27077,4.07704,16.3131,-31.3434,72.5219
62.232,-0.541502,-8.31787,4.17461,14.8067,-35.7765,71.9127
62.236,-0.461257,-8.36644,4.22019,13.5172,-40.7094,71.3962
62.241,-0.400231,-8.40887,4.27442,12.126,-45.7721,70.7795
62.247,-0.297961,-8.45281,4.34707,10.2007,-50.9532,70.4122
62.252,-0.188677,-8.57034,4.42913,8.25938,-55.9873,69.8709
62.256,0.0292049,-8.71971,4.48591,6.14533,-60.2468,69.2081
62.262,0.18296,-8.85702,4.45803,4.08726,-63.6629,68.1395
62.267,0.35814,-8.91401,4.4473,2.09948,-66.3376,67.006
62.272,0.433456,-8.98153,4.48743,-0.310122,-68.5683,65.8372
62.277,0.457902,-9.06404,4.49943,-2.73679,-70.9694,64.3119
62.282,0.529229,-9.24746,4.50411,-5.64296,-73.1217,62.3564
62.287,0.5944,-9.4525,4.47596,-7.9272,-75.1049,59.7365
62.292,0.640662,-9.64599,4.43746,-10.1701,-76.7459,57.3376
62.297,0.725466,-9.80021,4.41687,-12.6437,-77.6263,54.5968
62.303,0.756097,-10.0087,4.34365,-15.1088,-78.0291,51.6379
62.308,0.800582,-10.1434,4.25421,-17.5445,-77.8741,48.4841
62.313,0.785181,-10.2928,4.20663,-20.2332,-77.175,44.957
62.318,0.806625,-10.4342,4.16081,-22.7784,-76.1852,41.5769
62.323,0.812553,-10.4873,4.15065,-24.9093,-75.0148,37.8396
62.328,0.742397,-10.5211,4.11687,-26.8554,-73.5514,34.2042
62.333,0.722693,-10.5168,4.1576,-28.7001,-72.1171,30.5777
62.338,0.732806,-10.4451,4.17694,-30.6099,-70.6979,27.2229
62.344,0.770572,-10.3881,4.26022,-32.8521,-69.4325,24.2187
62.349,0.90045,-10.371,4.3483,-34.961,-68.6488,21.4801
62.354,0.966229,-10.4034,4.41393,-37.0333,-68.0904,18.8474
62.359,1.01496,-10.3824,4.48599,-38.9064,-67.6812,16.3914
62.364,1.12918,-10.3536,4.56019,-40.6172,-67.3545,13.9146
62.369,1.24992,-10.3511,4.6065,-42.2344,-67.2168,11.8476
62.374,1.34094,-10.2904,4.65429,-43.93,-66.6747,9.89409
62.379,1.38675,-10.1308,4.81524,-45.6112,-66.2348,8.2813
62.385,1.45986,-9.83551,5.07318,-47.4475,-66.1557,7.25577
62.39,1.50441,-9.55763,5.30395,-49.1118,-66.4887,6.70102
62.395,1.5915,-9.28031,5.57393,-50.807,-67.176,6.59916
62.4,1.59213,-8.97431,5.77205,-52.1855,-68.5283,6.59084
62.405,1.62933,-8.79652,5.99115,-53.4549,-70.1942,7.24954
62.41,1.64885,-8.64963,6.08154,-54.6882,-72.2441,7.92281
62.415,1.74308,-8.54793,6.16042,-55.5781,-74.3337,8.74476
62.42,1.77591,-8.58171,6.07167,-56.3012,-76.2782,9.39533
62.426,1.75048,-8.60143,5.93636,-56.749,-77.4255,9.92329
62.431,1.80196,-8.60655,5.79448,-57.204,-77.4496,10.4164
62.436,1.75598,-8.67441,5.60528,-57.6676,-76.8267,10.6009
62.441,1.70871,-8.71651,5.41613,-58.1589,-75.3421,10.5524
62.446,1.68877,-8.80544,5.28903,-58.3154,-73.2501,10.3439
62.451,1.58734,-8.79513,5.13075,-58.1202,-70.7203,10.0659
62.456,1.55899,-8.72959,5.04258,-57.739,-67.92,9.80644
62.461,1.50505,-8.67424,4.94986,-57.4938,-64.5706,9.53142
62.466,1.42431,-8.59266,4.85326,-57.0214,-60.9485,9.23007
62.471,1.45856,-8.49989,4.76547,-56.2432,-57.4582,8.78901
62.477,1.4086,-8.35532,4.68731,-55.32,-53.8809,8.23652
62.482,1.40419,-8.21833,4.65731,-54.2379,-50.4772,7.82219
62.486,1.39346,-8.04607,4.64931,-53.2619,-47.2723,7.5497
62.491,1.52079,-7.91763,4.66872,-52.4755,-44.2478,7.59189
62.497,1.64413,-7.87842,4.67356,-51.9154,-41.5184,7.57712
62.502,1.67086,-7.87624,4.70485,-51.1733,-39.1085,7.38237
62.506,1.82117,-7.90772,4.66592,-50.0412,-36.3498,7.23197
62.512,1.93566,-7.9518,4.66506,-49.2948,-33.5312,7.06111
62.517,2.00275,-8.00997,4.73063,-49.158,-30.834,6.73732
62.521,2.07103,-8.21954,4.81601,-49.3832,-28.0639,6.16629
62.526,2.14236,-8.49122,4.86204,-49.5228,-25.3568,5.25552
62.532,2.19119,-8.79607,4.89221,-49.5944,-22.702,3.82318
62.537,2.16055,-9.00417,4.86029,-49.0304,-19.799,2.24168
62.541,2.10347,-9.16217,4.93035,-48.7336,-17.0346,0.739236
62.547,1.95986,-9.29795,5.03904,-48.8453,-14.9256,-1.1721
62.552,1.85535,-9.43519,5.09244,-49.2551,-13.9893,-3.08343
62.556,1.76641,-9.55569,5.1871,-49.7951,-13.7632,-4.98335
62.561,1.79097,-9.66238,5.28281,-50.4816,-14.1003,-7.04593
62.567,1.86555,-9.76558,5.34658,-51.1334,-14.9577,-9.10187
62.572,1.94954,-9.82034,5.46053,-51.7866,-15.9513,-11.1657
62.576,1.98273,-9.8036,5.49849,-52.5782,-16.8495,-13.4358
62.581,1.94759,-9.76023,5.64426,-53.5562,-17.8367,-15.5497
62.587,1.90632,-9.63182,5.84071,-54.9687,-19.2663,-17.5046
62.591,1.84259,-9.5383,6.01474,-56.5102,-21.2699,-19.4401
62.596,1.76826,-9.3893,6.19473,-58.0638,-23.6611,-20.8242
62.602,1.74233,-9.24481,6.33439,-59.3207,-26.4803,-21.9553
62.607,1.6921,-9.07471,6.40721,-60.257,-29.3746,-22.7943
62.611,1.63715,-8.86129,6.51041,-61.3206,-32.3667,-23.3402
62.616,1.61342,-8.59549,6.59279,-62.6307,-35.417,-23.7837
62.622,1.56574,-8.42777,6.59612,-63.9249,-38.4331,-23.8786
62.627,1.54309,-8.3158,6.59373,-64.9157,-41.3548,-23.7721
62.631,1.5292,-8.17216,6.56184,-65.9066,-43.9365,-23.3997
62.637,1.47485,-8.06711,6.53639,-66.3477,-46.3658,-22.928
62.642,1.44449,-7.97237,6.49998,-66.8597,-48.2306,-22.7436
62.646,1.39877,-7.91215,6.3955,-67.0631,-49.6147,-22.4172
62.651,1.33585,-7.86252,6.25509,-67.0573,-50.5343,-22.1243
62.657,1.2594,-7.86703,6.12565,-67.0472,-51.0451,-21.8076
62.662,1.1905,-7.93079,5.98069,-66.9734,-51.337,-21.5045
62.666,1.1434,-8.02553,5.84785,-66.6534,-51.5708,-21.3037
62.672,1.09496,-8.18101,5.76294,-66.0457,-51.7444,-21.25
62.677,0.998011,-8.35682,5.70403,-65.3353,-52.1505,-21.4454
62.682,0.975883,-8.48706,5.69682,-64.4036,-52.6478,-21.5242
62.686,0.897228,-8.66029,5.70057,-63.1117,-53.6942,-21.6297
62.692,0.805583,-8.78084,5.76012,-61.192,-55.1511,-21.8409
62.697,0.794789,-8.85737,5.89642,-59.0517,-56.8579,-22.0269
62.701,0.783809,-8.88946,6.08039,-56.6098,-58.7652,-22.1107
62.706,0.732558,-8.86296,6.22352,-54.0091,-60.8463,-22.0565
62.712,0.740862,-8.86806,6.30918,-51.5348,-63.0478,-21.7923
62.716,0.767077,-8.82684,6.40712,-48.7729,-65.1889,-21.6754
62.721,0.788048,-8.73594,6.46353,-46.1592,-67.1684,-21.0225
62.727,0.783694,-8.62139,6.52378,-43.6012,-68.7081,-20.3994
62.732,0.815254,-8.51024,6.52573,-41.1574,-69.6406,-19.8521
62.736,0.808104,-8.43913,6.41174,-38.7274,-69.9723,-19.2883
62.741,0.834733,-8.3387,6.30425,-36.5495,-69.4427,-18.9149
62.747,0.815482,-8.20941,6.18847,-34.7543,-68.2407,-18.2802
62.752,0.779864,-8.10413,6.08247,-33.1329,-66.5817,-17.9496
62.756,0.74394,-8.01846,5.98177,-31.6678,-64.2951,-17.5664
62.762,0.714585,-7.93422,5.8675,-30.2417,-61.5571,-16.948
62.767,0.681944,-7.86261,5.74957,-28.8681,-58.288,-16.5181
62.771,0.657931,-7.81738,5.67745,-27.7721,-54.4653,-16.1512
62.776,0.686541,-7.76681,5.61502,-27.0185,-50.2857,-15.7504
62.782,0.64896,-7.73482,5.58843,-26.5041,-45.8229,-15.4734
62.787,0.610446,-7.72079,5.61227,-25.994,-41.4289,-14.9544
62.791,0.570299,-7.6864,5.65517,-25.346,-37.6289,-14.5864
62.797,0.498665,-7.68489,5.75219,-24.8068,-34.3002,-14.0926
62.802,0.440894,-7.67718,5.77753,-23.9066,-31.3618,-13.5341
62.806,0.423764,-7.62197,5.79051,-22.8914,-29.053,-12.9833
62.811,0.350174,-7.63816,5.78704,-21.6955,-26.86,-12.3544
62.817,0.296281,-7.60527,5.78457,-20.869,-24.7542,-11.5722
62.822,0.279761,-7.57239,5.84919,-20.4775,-22.9095,-10.4561
62.826,0.207614,-7.58521,5.97111,-20.253,-21.5497,-9.43462
62.831,0.13106,-7.66421,6.12489,-20.0797,-21.1457,-8.42403
62.837,0.110417,-7.75194,6.27112,-19.5099,-21.6748,-7.42552
62.841,0.0686004,-7.85126,6.32551,-18.4379,-22.7574,-6.40613
62.846,0.0443866,-7.95055,6.37658,-17.1322,-24.328,-5.02887
62.852,0.0323456,-7.99486,6.40244,-15.8238,-25.9662,-3.90164
62.857,-0.0485963,-8.08447,6.40816,-14.5944,-27.6987,-3.01805
62.861,-0.0763281,-8.15621,6.39211,-13.5295,-29.4624,-2.03853
62.866,-0.130948,-8.24728,6.45466,-12.6119,-31.4268,-0.872299
62.872,-0.13269,-8.35254,6.49357,-11.4699,-33.3912,0.251611
62.877,-0.134576,-8.45427,6.54555,-10.3683,-35.3802,1.3371
62.882,-0.185129,-8.59949,6.61574,-9.35141,-37.6686,2.41295
62.887,-0.17321,-8.72815,6.68567,-8.04723,-39.7154,3.51633
62.892,-0.153221,-8.90177,6.71519,-6.82299,-41.8341,4.45934
62.897,-0.157062,-9.08279,6.72891,-5.18656,-43.7272,5.21198
62.902,-0.0802554,-9.24717,6.70045,-3.484,-44.9478,6.14159
62.908,-0.0575966,-9.4125,6.66109,-1.77246,-45.5321,6.94434
62.913,-0.0722043,-9.60196,6.63836,0.00709891,-45.4889,7.75739
62.918,-0.0534099,-9.79253,6.62685,1.79656,-44.8318,8.36025
62.923,-0.0698481,-9.95639,6.6428,3.36585,-43.7663,9.02922
62.928,-0.115933,-10.1521,6.69508,4.91279,-42.5773,9.93288
62.933,-0.136735,-10.343,6.7709,6.43839,-41.2878,10.988
62.938,-0.175062,-10.509,6.86438,8.27349,-39.8799,11.8358
62.943,-0.210575,-10.7052,6.959,10.3288,-38.5407,12.8835
62.949,-0.271614,-10.7983,7.02203,12.4022,-37.0536,14.2043
62.954,-0.306905,-10.9115,7.05568,14.7433,-35.2693,15.5375
62.959,-0.320863,-11.0226,7.05044,17.1625,-33.708,16.9316
62.964,-0.37884,-11.063,7.05366,19.3387,-31.7738,18.5354
62.969,-0.398885,-11.1709,7.0299,21.3717,-29.6316,20.3496
62.974,-0.42302,-11.2719,7.07444,23.4204,-27.795,22.2465
62.979,-0.4413,-11.3976,7.13622,25.0932,-26.5682,24.3483
62.984,-0.387238,-11.4957,7.18783,26.9234,-25.6513,26.5804
62.99,-0.325101,-11.5194,7.28966,29.1725,-25.111,29.0974
62.995,-0.300856,-11.57,7.34217,31.7421,-24.9858,31.6407
63,-0.228949,-11.4576,7.31617,34.7188,-25.0211,34.053
63.005,-0.202292,-11.2914,7.25758,37.8534,-25.2077,36.6868
63.01,-0.159506,-11.0734,7.11858,40.6043,-25.0395,39.3993
63.015,-0.177645,-10.8905,6.96728,43.0717,-24.8629,42.017
63.02,-0.133119,-10.6555,6.83071,45.2167,-24.2262,44.7751
63.025,-0.178664,-10.4589,6.70698,46.9209,-22.9311,47.5741
63.031,-0.188279,-10.2783,6.51781,48.4867,-21.5404,50.167
63.036,-0.190141,-10.0554,6.37697,50.0149,-19.9019,52.7374
63.041,-0.242172,-9.88589,6.23943,51.1998,-18.2238,55.159
63.046,-0.275388,-9.76533,6.09075,52.2857,-16.403,57.4964
63.051,-0.324832,-9.65978,5.94594,53.4205,-14.42,59.3882
63.056,-0.342425,-9.56501,5.79738,54.5344,-12.5173,61.2567
63.061,-0.307546,-9.50061,5.64358,55.4699,-10.3852,62.9719
63.066,-0.286588,-9.42816,5.57515,56.2671,-8.15747,64.481
63.072,-0.299003,-9.40806,5.45381,56.6599,-6.1765,65.605
63.076,-0.360322,-9.35857,5.42573,57.2117,-4.70927,66.6011
63.081,-0.376333,-9.36472,5.4237,57.695,-3.68837,67.7617
63.087,-0.427282,-9.40463,5.38127,58.4364,-3.84501,68.4382
63.091,-0.416638,-9.43351,5.3962,59.253,-4.83728,68.8939
63.096,-0.364762,-9.49058,5.40867,60.0509,-6.13607,68.985
63.102,-0.218384,-9.63374,5.44544,61.304,-6.73099,69.1149
63.107,-0.269163,-9.76768,5.65291,62.0464,-7.92984,68.9103
63.111,-0.713856,-9.9366,5.79522,61.3807,-12.0589,68.0945
63.116,-0.987426,-10.0632,6.06487,61.3021,-18.6909,68.363
63.122,-1.13802,-10.4206,5.92805,62.2266,-26.3308,70.2557
63.127,-0.822478,-10.5674,5.40985,63.5485,-32.6771,70.9992
63.131,0.0245622,-10.5485,4.93363,63.8618,-34.4532,70.4537
63.137,0.656721,-10.7156,4.81744,63.2941,-31.2213,68.5919
63.142,0.163099,-11.079,5.21164,61.3865,-28.2238,64.9007
63.146,-0.770375,-11.2665,5.79552,59.6822,-30.5388,61.3039
63.151,-1.20099,-11.2766,6.19337,61.4453,-38.0647,61.566
63.157,-1.1153,-11.5076,6.27419,65.6559,-47.6612,64.0683
63.162,-0.884574,-11.6506,6.10835,69.3503,-56.6787,64.7099
63.166,-0.717332,-11.6639,5.90333,69.8853,-63.3557,63.2986
63.172,-0.667707,-11.6352,5.69616,69.4344,-66.815,62.2151
63.177,-0.674856,-11.6523,5.62352,69.8515,-67.8264,62.135
63.182,-0.716129,-11.6099,5.63968,70.7284,-68.2464,61.6771
63.186,-0.820782,-11.5813,5.60973,71.6448,-69.4796,60.6342
63.192,-0.91007,-11.5285,5.41906,72.7911,-71.2712,60.1917
63.197,-0.84488,-11.4089,5.19809,74.3433,-72.5203,60.2333
63.201,-0.745485,-11.3589,4.98573,75.5568,-72.8221,60.5072
63.206,-0.617738,-11.2513,4.73712,76.5054,-72.0247,60.258
63.212,-0.580885,-11.1218,4.60787,77.4215,-70.2529,60.1926
63.216,-0.580055,-11.0138,4.52261,78.3202,-68.1305,60.2113
63.221,-0.591146,-10.9394,4.46383,79.0982,-65.5837,60.4717
63.227,-0.518552,-10.8038,4.407,79.8946,-62.7298,61.0966
63.232,-0.432394,-10.6756,4.40147,80.6563,-59.356,61.7149
63.236,-0.319962,-10.6147,4.40382,81.2843,-55.3191,62.2421
63.241,-0.287278,-10.5567,4.28681,81.8591,-50.7287,62.6642
63.247,-0.194032,-10.4423,4.22191,82.3688,-46.1535,63.3579
63.252,-0.193109,-10.2561,4.19273,82.831,-41.9442,64.2392
63.256,-0.213279,-10.0914,4.16912,83.4325,-37.8529,65.2432
63.262,-0.22484,-9.94482,4.08735,84.0079,-33.8884,66.5494
63.267,-0.210905,-9.82549,3.98864,84.5049,-29.8594,67.7032
63.271,-0.175615,-9.67739,3.8719,85.0213,-25.8863,68.8723
63.277,-0.166541,-9.52539,3.80293,85.5833,-21.8421,69.7546
63.282,-0.165178,-9.40308,3.69277,85.7393,-17.6598,70.6844
63.287,-0.171617,-9.25535,3.58968,85.7916,-13.5624,71.6806
63.292,-0.311654,-9.10831,3.55897,85.6356,-9.95201,72.6271
63.297,-0.351037,-8.96418,3.52315,85.6576,-6.72982,73.6357
63.302,-0.296447,-8.85889,3.4743,85.6671,-3.45064,74.137
63.307,-0.306408,-8.79853,3.32458,85.8064,0.0402,74.2697
63.312,-0.300799,-8.63318,3.17479,85.4924,3.28053,74.5537
63.318,-0.376847,-8.46577,3.04106,84.3986,6.18605,75.0991
63.323,-0.501548,-8.34784,2.80786,83.239,8.73616,75.6495
63.328,-0.302466,-8.26134,2.46751,82.8096,12.6289,76.025
63.333,0.179764,-8.18799,2.08126,82.8463,21.2444,75.981
63.338,0.580801,-8.06983,1.71358,80.8973,34.8565,75.0135
63.343,0.80865,-7.74957,1.44379,76.1762,51.7467,72.7287
63.348,0.851605,-7.32769,1.34098,69.462,70.1815,70.0931
63.353,0.75485,-7.05951,1.50611,61.5462,88.3858,67.4179
63.359,0.527691,-6.93169,1.74623,53.6666,104.718,64.9339
63.364,0.432756,-6.92549,2.02416,46.7893,118.208,62.7373
63.369,0.33096,-6.99084,2.27922,41.0817,128.636,60.307
63.374,0.20223,-6.99973,2.56434,36.6405,136.064,57.9847
63.379,0.0918587,-6.97889,2.70483,33.5095,140.79,55.8251
63.384,0.0612251,-6.96537,2.73592,31.0332,144.424,53.9671
63.389,0.106494,-6.94521,2.71344,28.454,148.132,52.267
63.394,0.124965,-6.96038,2.74932,24.9257,152.009,50.1981
63.4,-0.00189181,-7.00092,2.87812,20.4238,155.202,47.3637
63.405,-0.230839,-7.21246,3.08699,15.6971,157.897,44.2144
63.41,-0.357264,-7.42587,3.27294,11.3285,160.268,41.3797
63.415,-0.445288,-7.69891,3.51753,6.92753,161.809,38.7238
63.42,-0.685009,-8.01964,3.72416,2.83426,161.708,36.0226
63.425,-1.00946,-8.32135,3.84049,-0.96222,159.036,33.3033
63.43,-1.33529,-8.54217,4.00517,-3.50556,153.625,30.4431
63.435,-1.60462,-8.73248,4.1517,-4.36894,145.756,27.6834
63.441,-1.80146,-8.85122,4.19906,-4.14972,136.217,24.7607
63.446,-1.96136,-8.88536,4.2977,-3.45325,125.456,21.6369
63.451,-2.11932,-8.94692,4.35112,-2.62098,114.325,18.7036
63.456,-2.27917,-9.13689,4.43566,-1.5387,103.503,15.6005
63.461,-2.54153,-9.35167,4.52223,-0.415114,93.0228,12.7184
63.466,-2.77209,-9.57551,4.6116,1.09369,82.6642,10.0314
63.471,-2.88227,-9.93567,4.66192,2.99524,72.5868,7.13885
63.477,-2.96974,-10.2064,4.64626,5.83781,62.4671,3.866
63.482,-2.99759,-10.3955,4.5461,9.64836,52.7495,0.0931948
63.486,-3.16574,-10.5515,4.34422,13.7361,44.124,-3.70284
63.491,-3.30525,-10.6978,4.04532,16.9251,37.6648,-6.97592
63.497,-3.20614,-10.8275,3.71305,19.1811,35.8554,-9.63636
63.502,-2.90062,-11.1093,3.23118,20.6565,40.4073,-12.4572
63.506,-2.2036,-11.4826,2.66261,21.2001,52.5977,-16.6787
63.512,-1.40388,-11.6657,1.87199,20.5312,73.2286,-21.9393
63.517,-0.355236,-11.3432,1.27052,17.6344,102.447,-25.4292
63.521,0.459899,-10.6262,1.45112,12.1966,138.685,-27.8459
63.526,1.00907,-9.67498,2.8847,3.09748,174.623,-30.581
63.532,1.16739,-8.85641,5.07939,-9.89067,206.223,-33.709
63.537,0.783377,-8.46895,6.88964,-24.2004,230.386,-34.2644
63.541,0.333542,-8.48035,8.74358,-35.1154,245.054,-30.6556
63.547,-0.138514,-9.04039,9.59805,-39.0319,252.429,-27.0119
63.552,-0.619455,-9.24174,9.45751,-38.4455,253.347,-23.1851
63.556,-0.920362,-9.2593,8.82034,-35.0535,251.561,-19.8933
63.561,-1.25269,-9.56564,7.47483,-30.1665,250.738,-17.9175
63.567,-1.66239,-9.74032,6.05787,-26.0467,251.388,-16.6606
63.572,-2.13527,-10.0104,4.85186,-22.3252,254.243,-17.0762
63.576,-2.66269,-10.4555,3.86088,-18.3547,258.479,-19.6047
63.581,-3.22809,-10.8561,3.21531,-13.0434,262.094,-23.9178
63.587,-3.88023,-11.1246,2.93309,-6.21635,263.769,-30.4174
63.591,-4.49291,-11.2663,3.00651,2.63262,261.612,-37.6485
63.596,-5.23982,-11.206,3.35725,12.7392,252.911,-44.0387
63.602,-6.06065,-11.1489,3.84834,24.1314,236.443,-49.7049
63.607,-6.61567,-10.9213,4.20168,37.3019,214.13,-54.847
63.611,-6.72231,-10.3751,4.49519,51.1259,188.861,-58.2007
63.616,-6.64066,-9.67958,4.80665,63.7101,163.663,-60.2018
63.622,-6.49405,-9.02973,5.11712,73.1098,138.665,-61.309
63.627,-6.35279,-8.4498,5.5236,79.595,113.756,-62.0265
63.631,-6.28247,-7.87179,5.97539,84.555,87.9521,-62.1166
63.637,-6.47726,-7.37347,6.58955,89.032,59.1354,-60.6401
63.642,-6.70747,-6.9908,7.13275,93.5562,26.2911,-58.5677
63.646,-6.69543,-6.57724,7.28794,98.5015,-8.43914,-56.1159
63.651,-6.46088,-6.02184,7.17936,102.954,-42.2433,-52.5788
63.657,-6.0336,-5.34514,6.98055,105.237,-73.2214,-47.4141
63.662,-5.54938,-4.79013,6.724,104.094,-101.006,-40.6013
63.666,-5.1074,-4.44478,6.46388,100.564,-125.678,-33.7612
63.672,-4.70565,-4.14328,6.1906,95.9394,-147,-27.4351
63.677,-4.31507,-3.8806,5.88556,90.7411,-165.377,-21.3285
63.682,-3.92909,-3.76707,5.67333,84.8626,-181.008,-15.3001
63.687,-3.56422,-3.66089,5.48038,78.3924,-194.808,-9.1463
63.692,-3.24237,-3.36924,5.42637,70.6556,-207.177,-1.51527
63.697,-2.8918,-3.15195,5.42783,61.4291,-218.319,7.37722
63.702,-2.45813,-3.1343,5.37883,51.9567,-226.772,15.6755
63.707,-1.70183,-3.19344,5.1542,42.7981,-229.701,22.0401
63.712,-1.12606,-3.34555,4.97367,32.6733,-227.4,27.5193
63.718,-0.762696,-3.47307,4.92446,21.1333,-221.229,31.1338
63.723,-0.593739,-3.58706,5.19217,8.78889,-213.338,34.007
63.728,-0.545878,-3.78294,5.48763,-2.79786,-205.307,36.6719
63.733,-0.482946,-4.00909,5.71075,-12.617,-197.877,39.0272
63.738,-0.538536,-4.15726,5.7957,-21.4975,-191.887,41.5134
63.743,-0.577284,-4.38026,5.87297,-30.0749,-187.425,44.3708
63.748,-0.611215,-4.78996,5.91296,-37.5351,-183.871,46.6359
63.753,-0.58915,-5.30442,5.86255,-43.5054,-181.383,47.7305
63.759,-0.559607,-5.82302,5.84492,-47.6905,-179.223,47.5478
63.764,-0.577775,-6.21307,5.80259,-50.3517,-177.166,46.0239
63.769,-0.695029,-6.53055,5.71151,-52.3613,-175.346,44.2586
63.774,-0.874041,-6.84954,5.69381,-54.3576,-173.765,42.8262
63.779,-1.04523,-7.1755,5.79386,-55.5373,-172.573,40.8819
63.784,-1.29559,-7.51848,5.72218,-55.8669,-172.086,38.6903
63.789,-1.43228,-7.85944,5.74246,-55.2922,-171.755,35.7465
63.794,-1.47422,-8.13174,5.89265,-54.0886,-171.074,31.8211
63.799,-1.61247,-8.23246,5.98843,-53.0961,-170.653,28.1871
63.805,-1.62865,-8.28244,6.07541,-52.3168,-171.105,24.5627
63.81,-1.65606,-8.34278,6.15804,-52.2256,-172.399,21.426
63.815,-1.63769,-8.34196,6.21416,-51.6923,-174.035,18.4311
63.82,-1.52264,-8.38592,6.17468,-50.7106,-175.669,15.3514
63.825,-1.38995,-8.35584,6.07685,-49.8411,-176.561,12.2044
63.83,-1.2772,-8.33464,5.91452,-49.3549,-176.78,9.31838
63.835,-1.12921,-8.40169,5.78692,-48.786,-176.03,5.72483
63.84,-0.946994,-8.42934,5.52979,-48.0911,-174.033,1.39446
63.846,-0.861849,-8.33358,5.23478,-48.1667,-170.92,-2.26281
63.851,-0.735156,-8.22793,5.05684,-48.7745,-166.769,-4.86467
63.856,-0.625572,-8.23536,4.87062,-49.7622,-161.674,-7.1892
63.861,-0.494533,-8.26494,4.72921,-50.7008,-155.917,-9.60234
63.866,-0.430002,-8.27114,4.56672,-51.6095,-149.444,-12.119
63.871,-0.359578,-8.17462,4.40815,-53.0521,-142.75,-14.1203
63.876,-0.343032,-8.13346,4.28847,-54.5815,-135.947,-15.6149
63.881,-0.302007,-8.12967,4.32651,-56.3202,-129.451,-16.985
63.887,-0.169493,-8.14342,4.31767,-57.778,-123.235,-18.2758
63.892,-0.0998693,-8.14465,4.47316,-58.8607,-117.512,-19.1616
63.896,-0.0890194,-8.14615,4.607,-59.8525,-112.59,-19.9194
63.901,0.00743771,-8.16118,4.77353,-60.5932,-108.507,-20.4034
63.907,0.0892421,-8.16899,4.96601,-60.8335,-104.933,-20.6999
63.912,0.134647,-8.18127,5.13122,-60.4094,-101.994,-20.9962
63.916,0.160739,-8.2041,5.1868,-59.6669,-99.4253,-21.0998
63.922,0.152541,-8.18233,5.21941,-58.8224,-96.727,-21.103
63.927,0.204039,-8.169,5.20236,-57.9252,-94.061,-20.5604
63.931,0.197764,-8.2013,5.16891,-57.0873,-91.2052,-19.9804
63.936,0.183101,-8.22077,5.174,-56.2276,-88.2914,-19.4604
63.942,0.174053,-8.19802,5.15373,-55.1435,-85.3776,-18.9825
63.947,0.172228,-8.26662,5.11607,-53.913,-82.2404,-18.6081
63.951,0.15714,-8.30817,5.02186,-52.5735,-78.6322,-18.3594
63.956,0.172358,-8.23524,5.0199,-51.3396,-75.0638,-17.8778
63.962,0.142388,-8.21092,5.013,-50.5565,-71.4507,-17.1449
63.966,0.171163,-8.17212,5.04145,-50.0429,-67.75,-15.9918
63.971,0.216025,-8.12892,5.06538,-49.7314,-64.1728,-15.0311
63.977,0.291533,-8.16083,5.12045,-49.6239,-60.3339,-13.8304
63.982,0.309751,-8.15647,5.18966,-49.6586,-56.6495,-12.7685
63.986,0.427473,-8.07943,5.28246,-49.5473,-52.9006,-11.901
63.991,0.513945,-8.10814,5.35434,-49.6638,-49.243,-10.8327
63.997,0.547264,-8.06225,5.51774,-50.0266,-45.6436,-9.66203
64.002,0.61528,-7.94241,5.65808,-50.3356,-42.4391,-8.29489
64.006,0.619246,-7.87385,5.76945,-50.6493,-39.8019,-7.04288
64.012,0.654303,-7.80274,5.83134,-50.846,-37.4996,-5.6993
64.017,0.625221,-7.69287,5.82945,-50.9458,-35.6348,-4.37061
64.021,0.638397,-7.60322,5.87207,-51.2104,-33.9599,-3.0373
64.026,0.656319,-7.53024,5.9052,-51.827,-32.723,-1.63452
64.032,0.692489,-7.52048,5.95209,-52.6063,-31.9022,-0.568282
64.037,0.644382,-7.5105,5.97342,-53.2856,-31.2465,0.498914
64.041,0.674927,-7.5963,6.00392,-53.9911,-31.0575,1.60228
64.047,0.682736,-7.68329,6.05905,-54.659,-31.1164,2.7282
64.052,0.662822,-7.84202,6.09815,-55.3008,-31.0485,3.55206
64.056,0.690064,-7.96712,6.10414,-56.2836,-30.8272,4.15192
64.061,0.665073,-8.14127,6.15084,-57.4034,-30.3742,4.55352
64.067,0.633231,-8.3336,6.2164,-58.5242,-29.8987,5.0384
64.072,0.627883,-8.51847,6.33289,-59.6816,-29.5377,5.15154
64.076,0.542225,-8.76794,6.4308,-60.6944,-29.2484,5.0621
64.081,0.448155,-9.01705,6.5601,-61.5248,-29.12,4.884
64.087,0.438853,-9.23127,6.59323,-61.8867,-29.0471,4.63671
64.092,0.410997,-9.47597,6.67297,-62.4478,-28.825,4.21284
64.097,0.429617,-9.65697,6.79218,-62.924,-28.4849,3.62403
64.102,0.38548,-9.87415,6.91693,-63.3972,-28.2121,2.78514
64.107,0.381022,-10.0884,7.05889,-63.8939,-28.4736,1.73247
64.112,0.307634,-10.2988,7.11132,-63.9212,-28.813,0.527327
64.117,0.268636,-10.4408,7.15971,-63.7064,-29.1631,-0.538166
64.123,0.206091,-10.5438,7.20785,-63.2291,-29.6022,-1.53195
64.128,0.152995,-10.6392,7.27159,-62.5479,-29.9628,-2.49978
64.133,0.0774779,-10.7696,7.31294,-61.7197,-29.9415,-3.47978
64.138,-0.0150378,-10.9491,7.38836,-60.9067,-29.4557,-4.45102
64.143,-0.00122203,-11.0909,7.4268,-60.1057,-28.4142,-5.57241
64.148,-0.0531191,-11.3296,7.40638,-59.5006,-26.7923,-6.76315
64.153,-0.0882091,-11.557,7.55857,-59.0871,-25.3059,-7.4724
64.158,-0.168147,-11.8009,7.70768,-58.2708,-24.049,-8.0706
64.164,-0.259082,-12.0213,7.86085,-57.1829,-23.7093,-8.46291
64.169,-0.365462,-12.2069,8.00797,-55.6537,-23.5294,-8.53891
64.174,-0.455097,-12.3856,8.21654,-53.5195,-23.4556,-8.31126
64.179,-0.555247,-12.4773,8.33487,-50.6303,-23.0147,-7.9507
64.184,-0.663958,-12.5302,8.41459,-47.799,-22.2476,-7.54466
64.189,-0.828839,-12.5608,8.41747,-44.6372,-21.2819,-7.32249
64.194,-1.00489,-12.4352,8.43074,-41.3998,-20.3131,-6.69816
64.199,-1.18841,-12.3589,8.36949,-37.7387,-19.1534,-5.67336
64.205,-1.40099,-12.1853,8.29921,-34.0794,-17.9488,-4.48192
64.21,-1.56957,-11.9816,8.18622,-30.2465,-17.2012,-2.98643
64.215,-1.72913,-11.8132,8.08636,-26.3041,-16.9484,-0.998567
64.22,-1.87206,-11.6402,7.94337,-22.3969,-17.4586,1.41822
64.225,-2.00247,-11.3944,7.7633,-18.159,-18.8946,4.17792
64.23,-2.11201,-11.1609,7.56928,-13.4897,-21.1042,7.46423
64.235,-2.15858,-10.884,7.35723,-8.59063,-24.052,11.1757
64.24,-2.08386,-10.5638,7.18747,-3.71186,-28.0461,15.4821
64.246,-2.06899,-10.1574,7.02538,1.15653,-32.4727,20.1734
64.251,-2.00315,-9.79127,6.84313,5.8339,-37.2161,25.1714
64.256,-1.80074,-9.38622,6.74314,10.1746,-42.182,30.7622
64.261,-1.6995,-9.0193,6.65232,13.9453,-46.8822,36.5879
64.266,-1.56212,-8.76179,6.51773,17.3516,-51.6233,42.2416
64.271,-1.42676,-8.50178,6.41402,20.658,-56.5391,47.6284
64.276,-1.36281,-8.29889,6.34596,23.7634,-61.6008,52.7394
64.281,-1.25595,-8.07874,6.30532,26.8586,-66.4916,57.2677
64.287,-1.17117,-7.9208,6.08474,29.7469,-71.7332,61.7542
64.291,-1.02367,-7.84812,5.9896,32.443,-76.8244,65.5722
64.297,-0.915756,-7.85585,5.91922,35.0795,-80.9412,68.6348
64.302,-0.700021,-7.91693,5.86095,37.1509,-83.6212,71.0799
64.306,-0.569894,-8.05496,6.03296,39.2037,-85.4839,72.6337
64.311,-0.780752,-8.20304,6.14422,40.0737,-88.4942,73.4557
64.317,-1.05936,-8.27706,6.24877,40.1907,-93.8258,75.2977
64.322,-1.18851,-8.56457,6.45469,40.8891,-100.401,78.1971
64.326,-1.31203,-8.92705,6.87738,42.6803,-107.949,79.315
64.331,-1.72676,-9.27813,6.67973,43.7536,-117.972,78.9018
64.337,-1.80319,-9.28864,6.43262,43.4106,-130.563,78.7185
64.341,-1.42993,-9.41695,6.13813,42.7536,-141.696,78.8982
64.346,-0.891986,-9.66518,5.84628,42.4974,-149.82,77.6003
64.352,-0.627545,-9.90391,5.47863,41.3233,-156.139,75.0451
64.357,-0.710858,-9.97998,5.32631,38.7818,-162.72,72.545
64.361,-0.982003,-9.99655,5.4014,36.3424,-169.956,70.9381
64.366,-1.25101,-10.0851,5.38365,35.6651,-178.943,69.9576
64.372,-1.33595,-10.2557,5.27087,36.6634,-188.99,69.0584
64.377,-1.24807,-10.3832,4.94138,37.9882,-199.249,67.9516
64.381,-1.0404,-10.3867,4.37632,38.7147,-208.039,67.1126
64.387,-0.583849,-10.2617,3.36889,37.8792,-213.189,67.4197
64.392,0.292467,-10.2081,2.77136,37.4869,-211.167,67.9875
64.396,0.808135,-10.374,3.09559,38.854,-201.015,65.7558
64.401,0.500608,-10.5923,3.32292,41.0914,-187.49,60.8355
64.407,0.207335,-10.2424,3.55854,41.6765,-175.297,56.5691
64.412,0.506366,-9.99609,4.17256,43.413,-164.982,55.6834
64.416,-0.168798,-10.4649,5.00714,49.731,-158.44,54.4364
64.422,-1.45632,-10.6658,5.99412,58.919,-159.089,50.3341
64.427,-2.18342,-10.3323,6.51344,69.3983,-166.649,50.0774
64.431,-1.99571,-10.0577,6.22395,79.537,-175.757,55.331
64.436,-1.02249,-9.93269,5.38021,87.4441,-178.907,60.5614
64.442,0.110371,-9.7807,4.4503,90.8569,-173.027,61.3383
64.447,0.745918,-9.57533,3.83369,89.7183,-158.938,58.1503
64.451,0.902825,-9.25698,3.60923,86.5808,-140.218,54.6736
64.456,0.72833,-9.0558,3.68631,84.6176,-121.271,53.2057
64.462,0.501259,-8.93575,3.80222,84.115,-104.999,52.7887
64.466,0.466502,-8.84563,3.73542,84.2436,-92.1348,52.5381
64.471,0.587721,-8.73237,3.6115,84.312,-81.0431,52.2288
64.477,0.740201,-8.66094,3.39046,84.093,-70.5326,51.6258
64.482,0.901077,-8.54903,3.17263,83.9274,-59.4514,50.6014
64.486,0.946665,-8.43522,3.08981,83.4397,-48.0914,49.5427
64.492,0.886945,-8.36519,3.07727,82.5879,-36.7723,48.3123
64.497,0.78123,-8.32436,3.13172,81.2358,-26.4092,47.1553
64.502,0.637428,-8.35411,3.22583,79.6185,-18.0342,45.9057
64.507,0.485954,-8.41533,3.27222,78.7582,-11.1412,44.6176
64.512,0.450318,-8.44566,3.28351,78.4563,-5.08283,43.4714
64.517,0.414413,-8.3949,3.2659,78.1078,0.587236,42.4296
64.522,0.407055,-8.38006,3.23375,77.1245,5.64664,41.1876
64.527,0.323986,-8.36294,3.24924,75.8706,10.4763,40.1834
64.533,0.213601,-8.36055,3.2649,74.592,14.6356,38.9575
64.538,0.14256,-8.3198,3.35134,72.9583,18.2656,37.9597
64.543,0.0824525,-8.31499,3.42655,71.1101,21.0449,37.055
64.548,0.0430154,-8.29224,3.52172,69.1522,23.0356,36.0936
64.553,-0.0330991,-8.2669,3.61577,67.2177,24.0959,35.6069
64.558,-0.142652,-8.2388,3.70519,65.2389,24.5417,34.8832
64.563,-0.220406,-8.19309,3.81828,63.2887,24.1034,34.3089
64.568,-0.252066,-8.15487,3.94093,61.4279,22.7275,33.8545
64.574,-0.299777,-8.0819,4.09612,59.5792,20.4559,33.2843
64.579,-0.345881,-8.06842,4.20424,57.7218,17.3669,32.6662
64.584,-0.40808,-7.9444,4.29638,55.9972,13.6373,32.2225
64.589,-0.419229,-7.82313,4.38984,54.3017,9.18255,32.0195
64.594,-0.469078,-7.77681,4.45045,52.4806,4.245,31.677
64.599,-0.476651,-7.67664,4.50053,50.7974,-0.946798,31.4494
64.604,-0.460947,-7.57519,4.48737,48.9697,-6.40684,31.1584
64.609,-0.460554,-7.50996,4.39961,47.0626,-11.7799,30.7984
64.615,-0.439448,-7.44105,4.3181,44.8707,-16.9409,30.6015
64.62,-0.410951,-7.42785,4.23417,42.9297,-21.8162,30.1515
64.625,-0.348493,-7.37642,4.15082,40.8556,-26.2098,29.4359
64.63,-0.257794,-7.40721,4.03737,38.4405,-30.1101,28.7622
64.635,-0.155768,-7.491,3.98394,36.0757,-33.3719,27.9169
64.64,-0.0740104,-7.5624,3.90588,33.5316,-36.3817,27.0015
64.645,-0.00558069,-7.66656,3.84003,30.8873,-39.385,25.9939
64.651,0.025825,-7.82088,3.86798,28.3194,-42.7477,25.0393
64.656,0.0570941,-8.03925,3.85358,26.0983,-46.3988,23.8088
64.661,0.168809,-8.27058,3.89971,24.4448,-50.4292,22.4189
64.666,0.255475,-8.48533,3.92353,23.1799,-54.247,21.0653
64.671,0.293477,-8.77023,3.94468,21.7385,-57.5403,19.6577
64.676,0.409927,-9.04489,3.96046,19.978,-60.6223,17.9659
64.681,0.535756,-9.33691,3.9775,18.1989,-63.6709,16.1756
64.686,0.580653,-9.64451,3.94522,16.7308,-66.1251,14.4519
64.692,0.641566,-9.89259,3.9567,15.6772,-68.24,12.4624
64.697,0.697404,-10.1828,3.95492,14.5904,-69.6984,10.4743
64.701,0.725342,-10.412,3.94341,13.3884,-70.8671,8.22799
64.706,0.789353,-10.6297,3.98532,12.0114,-71.3749,5.93546
64.712,0.869798,-10.9052,3.94829,10.8808,-71.4848,3.8066
64.716,0.905147,-11.0895,3.90017,9.92314,-70.7459,1.6295
64.721,0.93472,-11.1975,3.86999,9.05723,-69.3665,-0.764096
64.727,1.04853,-11.2174,3.82403,8.0064,-67.6001,-2.7277
64.732,1.11816,-11.2965,3.69529,6.74486,-64.97,-4.92666
64.736,1.19535,-11.3956,3.57906,5.00577,-61.7963,-7.45658
64.741,1.30026,-11.5646,3.47848,2.77981,-58.1936,-9.74999
64.747,1.42561,-11.6962,3.43119,0.263647,-53.6405,-12.3478
64.752,1.5003,-11.8339,3.34991,-2.36662,-48.1403,-14.7554
64.756,1.57712,-11.9243,3.26637,-5.24945,-41.9373,-17.4448
64.762,1.66659,-11.9599,3.34717,-8.38092,-35.5662,-19.6907
64.767,1.7737,-11.9298,3.47356,-12.0021,-29.0389,-21.7159
64.771,1.86706,-11.9752,3.60967,-16.1117,-22.559,-23.7786
64.776,1.94336,-12.0205,3.71045,-20.2251,-15.9892,-25.508
64.782,1.97738,-11.9781,3.82217,-23.9765,-9.49233,-26.9901
64.787,1.98332,-11.7562,3.91676,-27.9282,-2.82377,-28.5654
64.791,1.96094,-11.477,4.02713,-32.1108,3.66202,-29.7811
64.797,1.86708,-11.1258,4.16637,-36.2596,9.98998,-30.641
64.802,1.74665,-10.6861,4.33758,-40.5382,16.1064,-31.1322
64.806,1.60911,-10.1661,4.53607,-44.7107,21.6367,-30.9725
64.811,1.47213,-9.57858,4.75141,-48.7997,26.5455,-30.0182
64.817,1.34695,-8.92725,4.97424,-52.5837,30.5603,-28.3276
64.822,1.23658,-8.29484,5.26197,-56.2274,33.3102,-26.0707
64.826,1.12088,-7.73837,5.52804,-59.286,34.3866,-23.3556
64.831,1.02019,-7.33132,5.63109,-61.3369,34.4475,-20.7576
64.837,0.899765,-7.0125,5.70511,-62.4387,33.6604,-18.3224
64.841,0.848926,-6.65178,5.74755,-62.7568,32.3564,-15.6049
64.846,0.807116,-6.42051,5.72679,-62.6977,30.515,-12.6486
64.852,0.741007,-6.27856,5.65968,-62.7461,28.3387,-9.55861
64.857,0.657004,-6.19114,5.68427,-62.4787,25.52,-6.29174
64.861,0.724293,-6.11301,5.7306,-61.8996,21.9899,-2.60585
64.866,0.744631,-6.1805,5.70695,-60.9026,17.7658,1.18247
64.872,0.768074,-6.2443,5.69285,-58.8875,13.2989,4.73494
64.877,0.78179,-6.3413,5.55077,-56.056,8.62424,7.95025
64.881,0.824381,-6.38878,5.43775,-53.0571,4.25342,11.0855
64.887,0.812643,-6.47281,5.29891,-49.7896,0.157365,14.1496
64.892,0.869418,-6.60942,5.12941,-46.8617,-3.64906,16.9977
64.897,0.905965,-6.8628,4.94207,-44.1878,-7.22895,19.29
64.902,0.934239,-7.19935,4.71041,-41.5424,-10.2647,21.167
64.907,0.964165,-7.62382,4.40427,-38.8612,-12.56,22.5316
64.912,1.00937,-8.07786,4.1238,-36.5481,-14.0216,23.2649
64.917,1.08998,-8.60298,3.76819,-34.4628,-14.4499,23.6722
64.922,1.15514,-9.14237,3.4759,-32.6398,-13.846,23.3062
64.927,1.22524,-9.68949,3.1682,-31.3257,-12.4266,22.1781
64.933,1.26374,-10.2269,2.95577,-30.1164,-10.2849,20.4069
64.938,1.33674,-10.6398,2.88556,-29.0741,-7.50354,18.0142
64.943,1.37358,-10.9291,2.87281,-28.0371,-4.3238,14.8881
64.948,1.41684,-11.0688,2.97764,-26.5643,-0.905458,11.3449
64.953,1.54437,-10.9479,3.19906,-25.0562,2.15129,7.89964
64.958,1.55369,-10.664,3.55412,-23.8851,4.14693,4.42396
64.963,1.62034,-10.3381,3.95108,-23.3,5.24959,1.36139
64.968,1.70968,-9.97009,4.35801,-22.892,5.09474,-1.67688
64.974,1.80412,-9.64006,4.7156,-23.0697,4.04698,-4.30191
64.979,1.90906,-9.3414,4.98354,-24.0249,3.09516,-6.55932
64.984,1.9679,-9.03522,5.24191,-25.5316,2.03575,-8.74916
64.989,1.89034,-8.75894,5.41208,-27.2758,1.5545,-10.9635
64.994,1.78721,-8.42705,5.6266,-29.1963,1.59776,-13.2321
64.999,1.7062,-8.07163,5.76487,-31.6456,1.90888,-15.3106
65.004,1.60095,-7.71903,5.80889,-34.6075,2.68076,-16.7591
65.009,1.41373,-7.34307,5.90884,-38.2044,3.36317,-17.9672
65.014,1.23109,-7.06029,5.94978,-41.9484,4.00345,-18.8973
65.02,1.0318,-6.86204,5.97123,-45.5949,4.36484,-19.7512
65.025,0.921206,-6.6654,5.93097,-48.9683,3.94529,-20.3912
65.03,0.762695,-6.55656,5.82265,-51.7248,2.86392,-20.5775
65.035,0.745006,-6.5259,5.63173,-54.081,1.43926,-20.5773
65.04,0.853731,-6.52414,5.28866,-55.7671,-0.0762978,-20.545
65.045,0.834444,-6.53847,4.83973,-56.5996,-1.18616,-20.1209
65.05,0.790221,-6.56265,4.67384,-56.5944,-0.799921,-20.1803
65.055,0.900457,-6.47325,4.62991,-56.8777,2.40107,-22.0306
65.061,1.21152,-6.31748,4.5528,-57.3779,8.16983,-25.2018
65.066,1.51066,-6.28358,4.54351,-58.9787,16.6614,-27.5109
65.071,1.61971,-6.44318,4.72111,-61.8833,26.6503,-28.5397
65.076,1.46166,-6.6408,5.11998,-64.3504,35.5495,-29.7167
65.081,1.10646,-6.82696,5.46793,-64.8587,41.4159,-30.8133
65.086,0.778192,-6.84796,5.84881,-63.3749,43.5927,-31.8309
65.091,0.555595,-6.83397,6.1267,-60.3007,41.5024,-32.1712
65.096,0.456167,-6.84908,6.25596,-57.045,36.526,-31.8201
65.102,0.489728,-6.92941,6.30257,-54.1516,30.3392,-31.2808
65.107,0.474514,-7.11726,6.32501,-51.4003,23.998,-30.8801
65.111,0.388404,-7.29456,6.39994,-48.8303,17.9538,-30.3829
65.116,0.301613,-7.44776,6.42977,-46.013,12.2851,-29.8053
65.122,0.180795,-7.58408,6.50729,-42.9987,6.3536,-28.9758
65.127,0.135418,-7.6416,6.50827,-40.3102,0.450868,-28.113
65.131,0.0940255,-7.74328,6.41946,-37.6669,-5.70409,-27.138
65.137,0.105004,-7.87946,6.21423,-35.2152,-10.8699,-26.2085
65.142,0.196061,-7.99911,6.00547,-32.7798,-14.0843,-25.4479
65.146,0.182347,-8.20158,5.80031,-30.9285,-14.9679,-24.697
65.151,0.233543,-8.40504,5.96806,-29.7616,-12.7294,-24.8407
65.157,0.368841,-8.591,6.18815,-29.366,-8.98314,-26.7857
65.162,0.394468,-8.65061,6.35889,-29.3357,-5.93504,-29.3512
65.166,0.318313,-8.80601,6.42451,-28.771,-3.99786,-30.3145
65.172,0.0878831,-8.99849,6.41772,-27.2103,-4.08962,-29.9593
65.177,-0.200208,-9.11921,6.47863,-24.4516,-7.44665,-29.1567
65.181,-0.465647,-9.14872,6.48008,-20.8984,-13.8169,-27.9345
65.186,-0.615948,-9.17659,6.35961,-16.9653,-21.9166,-26.1968
65.192,-0.486523,-9.25338,6.1818,-13.7157,-30.4492,-23.9476
65.197,-0.214235,-9.27749,5.99491,-11.4758,-38.2614,-21.6807
65.201,0.0153821,-9.37323,5.83036,-9.847,-44.1869,-19.3037
65.206,0.188901,-9.48171,5.67213,-8.61063,-47.646,-17.4178
65.212,0.267247,-9.46146,5.56931,-7.57127,-49.0377,-15.7788
65.216,0.376653,-9.43268,5.53472,-6.89439,-48.711,-14.4736
65.221,0.578316,-9.42062,5.51268,-7.01599,-47.2441,-13.3507
65.227,0.734293,-9.41815,5.55236,-7.73254,-44.3776,-12.2099
65.232,0.888945,-9.41063,5.6889,-8.92562,-40.3097,-10.9515
65.236,1.03988,-9.47266,5.80556,-10.3331,-35.6283,-9.86099
65.241,1.16093,-9.6004,5.95016,-11.6485,-30.1475,-8.89574
65.247,1.24312,-9.68458,6.05448,-12.7371,-24.5529,-8.04805
65.252,1.25758,-9.72143,6.13124,-13.3772,-19.1167,-7.37606
65.256,1.28543,-9.74798,6.28606,-14.0031,-14.1226,-6.62937
65.262,1.24523,-9.78753,6.384,-14.3806,-9.89993,-5.35883
65.267,1.17617,-9.85001,6.47375,-14.5265,-6.80038,-4.09562
65.271,1.05144,-9.8824,6.5723,-14.3609,-4.7521,-2.67942
65.276,0.889737,-9.93182,6.67503,-14.1519,-4.21104,-1.21365
65.282,0.724395,-10.0934,6.71677,-13.5506,-5.01186,0.216132
65.287,0.630774,-10.1908,6.71041,-12.2854,-6.26729,1.82083
65.291,0.563554,-10.2707,6.65753,-10.6559,-7.82184,3.33146
65.297,0.49343,-10.3187,6.61005,-8.91908,-9.38147,4.44234
65.302,0.410746,-10.3371,6.57199,-7.42474,-10.7492,5.58813
65.307,0.358031,-10.394,6.5271,-6.23379,-11.8715,6.79839
65.312,0.291658,-10.5015,6.50626,-4.71619,-13.0449,7.89203
65.317,0.225194,-10.5599,6.416,-3.01972,-14.2894,9.23035
65.322,0.228509,-10.6415,6.34333,-1.20155,-15.6409,10.5095
65.327,0.233625,-10.7471,6.23855,0.512018,-17.3948,11.6725
65.332,0.270967,-10.8805,6.20128,2.06154,-19.3611,12.7569
65.338,0.295681,-11.0092,6.1591,3.70856,-21.6063,13.9176
65.343,0.303652,-11.1939,6.12483,5.10879,-24.0683,15.0894
65.348,0.418845,-11.3503,6.21043,6.0568,-26.9617,16.2383
65.353,0.532955,-11.5212,6.35955,6.63352,-30.2374,17.4414
65.358,0.636558,-11.6874,6.57746,7.18971,-33.7746,18.4467
65.363,0.808632,-11.7977,6.85475,7.77548,-37.8784,19.784
65.368,0.958664,-11.8592,7.14669,8.58098,-42.2097,21.2298
65.373,1.05694,-11.8857,7.28825,9.51339,-46.2619,22.5571
65.379,1.14363,-11.8522,7.39596,10.9612,-49.8224,23.8022
65.384,1.21492,-11.7256,7.42226,12.4609,-52.6083,24.8836
65.389,1.16547,-11.5259,7.35378,13.8858,-54.7399,26.0111
65.394,1.08418,-11.2554,7.22024,15.3559,-56.2794,27.2924
65.399,0.958591,-11.028,7.02417,16.6077,-57.4552,28.4731
65.404,0.801005,-10.7247,6.78271,18.0669,-58.1214,29.7868
65.409,0.730303,-10.4073,6.61559,19.8294,-58.6933,31.3021
65.414,0.612535,-10.1313,6.35736,21.6143,-59.0484,32.8485
65.42,0.490101,-9.79961,6.13668,23.8119,-59.0192,34.2959
65.425,0.354691,-9.48273,5.91635,26.2697,-59.1928,35.8904
65.43,0.206206,-9.2181,5.67488,28.9528,-59.3887,37.3592
65.435,0.0853767,-8.95405,5.51106,31.6945,-59.7519,38.8739
65.44,0.0734718,-8.778,5.3652,34.352,-60.2558,40.4703
65.445,0.0715515,-8.66833,5.25139,37.1939,-60.9654,41.8113
65.45,0.059579,-8.63214,5.11168,39.7724,-61.9035,42.8981
65.455,0.123304,-8.64561,5.00025,42.6566,-62.9733,43.845
65.461,0.150189,-8.67962,4.87992,45.6277,-64.6499,43.9285
65.466,0.309464,-8.73209,4.8678,48.7624,-66.6125,43.7333
65.471,0.400586,-8.84749,4.77015,52.2428,-68.8411,43.3455
