t,acc_x,acc_y,acc_z,gyr_x,gyr_y,gyr_z
55.004,3.2959,-9.9244,4.50489,88.3979,-35.2535,-13.1249
55.01,2.8885,-8.64054,3.40924,81.6181,-26.1046,-12.5197
55.014,2.34136,-7.88643,3.54892,75.6582,-15.7749,-14.6154
55.019,1.71536,-7.92372,4.30401,73.6731,-6.32185,-15.7623
55.025,1.44183,-8.25024,4.85639,74.7056,0.322494,-15.7851
55.03,1.52368,-8.62419,4.84795,74.9949,3.93229,-15.8638
55.035,1.58752,-9.00753,4.40414,73.2945,6.29669,-16.0497
55.039,1.49925,-9.15039,4.07801,70.6625,8.79177,-16.271
55.045,1.39736,-9.0272,4.14229,68.0218,12.122,-16.1325
55.049,1.25246,-8.78367,4.37072,65.6228,16.5474,-16.4183
55.055,1.04698,-8.66609,4.39113,62.9028,20.9376,-16.3812
55.059,0.915655,-8.56882,4.13542,60.6445,23.3959,-16.5809
55.065,1.0056,-8.53773,3.74117,58.7699,22.7874,-16.7347
55.07,1.17362,-8.42806,3.41503,57.4398,20.0832,-17.7994
55.074,1.48267,-8.64474,3.532,56.6004,19.4025,-19.2623
55.08,1.68258,-8.97697,3.75779,57.1914,22.3969,-20.608
55.084,1.47026,-9.23265,3.31591,58.8809,24.9239,-21.2358
55.09,1.11678,-8.95246,2.46459,58.9906,20.9149,-22.1884
55.094,1.15941,-8.40659,2.2752,57.2764,11.522,-23.8362
55.1,1.39336,-8.34592,2.63394,56.2241,2.89289,-23.5658
55.104,1.65723,-8.55536,3.05807,55.2924,-1.98077,-21.2417
55.109,1.92236,-8.70147,3.45959,53.6285,-3.25792,-19.6211
55.115,2.02378,-8.67365,3.36247,51.4438,-2.41603,-18.1481
55.119,2.08137,-8.33602,3.33176,48.7131,-1.99261,-17.4251
55.125,2.15206,-8.13394,3.67041,46.2204,-1.65203,-17.1668
55.129,2.19859,-8.21422,3.97406,44.3328,0.728795,-16.1527
55.135,2.10258,-8.41531,3.81857,42.4908,4.06011,-14.8278
55.139,1.98144,-8.44401,3.75475,40.2945,6.03417,-13.8191
55.144,2.03122,-8.24306,4.01997,37.7094,7.28468,-13.3455
55.15,1.83089,-8.16467,4.26394,35.3387,9.38256,-13.0735
55.154,1.66353,-8.05152,4.28012,33.8154,11.9979,-13.3097
55.16,1.66183,-7.99002,4.23809,32.5232,13.41,-14.0709
55.164,1.64957,-8.00775,4.37968,31.4028,15.3756,-15.3157
55.17,1.60396,-8.04721,4.49298,30.1401,18.839,-17.0688
55.174,1.5481,-7.97207,4.57241,28.9721,22.2422,-19.0113
55.18,1.37911,-7.9435,4.60851,27.8313,25.1788,-21.1853
55.184,1.28251,-8.03479,4.60929,26.7748,27.3264,-23.2237
55.19,1.34523,-7.98606,4.60819,26.0375,28.9415,-24.7951
55.195,1.60172,-8.01758,4.44691,25.5213,29.8601,-26.546
55.199,1.8361,-8.18475,4.23433,24.7525,30.3833,-27.53
55.205,2.00333,-8.28942,3.96363,24.0469,31.3238,-27.6902
55.209,2.13911,-8.34355,3.74143,23.55,31.9392,-27.7017
55.215,2.26469,-8.42912,3.5473,22.8582,30.9292,-26.585
55.219,2.32215,-8.44955,3.47906,21.819,28.7287,-24.9289
55.225,2.30843,-8.40255,3.48505,21.2152,25.7251,-22.8585
55.229,2.28555,-8.19601,3.52836,20.6733,23.0502,-20.783
55.234,2.36828,-8.05728,3.56422,20.1854,19.8747,-19.9775
55.24,2.3228,-8.19083,3.77239,19.2323,17.5937,-18.5676
55.244,2.24223,-8.19464,3.84758,18.7952,16.1608,-17.4055
55.25,2.15765,-8.35399,3.95789,18.5498,15.4572,-16.5959
55.254,2.14348,-8.45509,3.99069,18.3406,15.1625,-15.5441
55.26,2.18494,-8.608,3.87938,18.5394,15.4851,-14.642
55.264,2.25709,-8.69683,3.68426,18.6459,16.0033,-13.5335
55.269,2.33697,-8.57476,3.51086,19.231,15.9178,-12.9381
55.275,2.28013,-8.36139,3.30027,20.1199,15.113,-12.7884
55.28,2.22203,-8.23012,3.17538,21.4291,12.745,-12.738
55.285,2.09708,-8.26948,3.21343,23.1004,9.66342,-12.7518
55.29,2.03422,-8.34095,3.5306,24.9683,6.05468,-11.8894
55.295,2.07634,-8.40802,4.12283,26.4412,3.54828,-10.7685
55.3,1.95826,-8.47325,4.36404,27.5041,2.95361,-9.47685
55.305,1.82891,-8.55412,4.15054,28.2607,3.04132,-8.96882
55.31,1.79552,-8.56376,3.80484,29.4204,1.76492,-9.47825
55.316,1.8651,-8.52844,3.49946,31.3189,-1.41411,-9.62285
55.321,2.06878,-8.59923,3.46789,33.6756,-4.42271,-8.78553
55.326,2.31888,-8.59684,3.77293,36.0477,-5.81574,-7.01794
55.331,2.42302,-8.66844,4.13663,38.2775,-4.8557,-5.34199
55.336,2.39164,-8.82,4.24637,40.3317,-2.8645,-4.39669
55.341,2.37179,-8.7718,4.02187,42.0936,-1.18773,-3.75354
55.346,2.51184,-8.66383,3.79812,43.9068,0.328028,-3.58445
55.351,2.64914,-8.62627,3.84096,46.2151,1.47338,-3.81735
55.357,2.49394,-8.54437,3.99981,49.1099,3.57593,-3.43166
55.362,2.28727,-8.41159,3.91751,52.005,5.10512,-2.64687
55.367,2.18442,-8.49789,3.84562,54.5497,4.88548,-2.56347
55.372,2.17609,-8.6319,3.69412,57.7012,4.03609,-2.15323
55.377,2.29464,-8.68043,3.54955,61.0253,2.35413,-0.624299
55.382,2.50141,-8.60818,3.66708,64.811,1.02443,1.10226
55.387,2.46838,-8.56838,4.02246,68.2239,1.34749,2.43132
55.392,2.22479,-8.44302,4.17425,71.1415,2.61437,3.76335
55.398,2.10168,-8.74571,4.12555,73.958,3.44082,4.02397
55.403,2.23326,-8.87705,4.22389,77.1608,3.76066,5.1899
55.408,2.34779,-9.05931,4.36851,80.527,2.94585,6.6018
55.413,2.38097,-9.14624,4.74328,83.2485,2.02343,7.43028
55.418,2.33969,-9.30524,5.39098,84.5551,1.66305,7.48998
55.423,2.23149,-9.3348,5.7926,86.3786,2.81299,7.72156
55.428,2.16325,-9.34379,5.82156,87.4082,4.84853,8.02209
55.433,2.13042,-9.4602,5.63676,88.8179,6.73208,8.38391
55.438,2.06065,-9.47184,5.68741,90.5562,7.76942,8.8645
55.444,1.88811,-9.54104,5.98452,92.1668,9.11474,9.321
55.449,1.70598,-9.66124,5.90074,93.5991,10.877,10.638
55.454,1.52128,-9.97507,5.82941,95.204,11.9051,11.8616
55.459,1.6487,-10.1118,5.86871,97.1433,12.5451,12.8447
55.464,1.94385,-10.423,6.05204,99.474,13.4282,13.1591
55.469,1.79865,-10.7304,5.89032,102.239,14.0352,14.29
55.474,1.66381,-11.0861,5.95455,104.306,14.5082,15.7051
55.479,1.92511,-11.2231,6.04545,106.632,15.0221,17.1974
55.484,2.05919,-11.6162,6.06152,109.768,14.9357,18.3211
55.49,2.13024,-11.7281,6.04926,112.834,15.2519,20.6209
55.495,2.11316,-11.8649,6.12595,115.82,16.2107,21.9863
55.5,2.20516,-11.9691,6.44142,118.386,18.0127,23.0515
55.504,2.30553,-12.3163,6.71326,120.969,20.8144,23.8257
55.51,2.35744,-12.9099,6.82304,124.003,24.2822,25.1461
55.514,2.46162,-13.2604,6.6438,127.2,28.1906,27.5285
55.52,2.71615,-13.6438,6.2429,129.855,32.0402,30.0139
55.525,2.94007,-14.0316,5.8636,132.693,35.7493,32.0636
55.53,3.0215,-14.3445,5.88495,135.636,39.1676,34.0038
55.535,3.16927,-14.6912,5.95954,139.874,43.2224,35.5221
55.539,3.76766,-14.8898,5.87729,144.066,49.2305,35.9638
55.545,3.81728,-14.8525,4.55274,148.001,57.2407,34.7548
55.549,3.38418,-15.282,3.99547,151.961,62.276,32.0439
55.555,2.70114,-15.9604,4.43175,157.378,66.0894,31.1792
55.559,2.14074,-16.9692,4.71479,162.241,69.7886,31.9434
55.565,1.58323,-18.2543,4.31499,166.413,73.9528,33.0405
55.57,1.2662,-18.9567,3.8161,170.731,78.3709,34.2873
55.574,1.12131,-19.3307,3.02088,175.941,82.166,34.8994
55.58,1.21252,-19.7166,1.96298,180.806,84.8168,35.2495
55.584,1.16745,-19.977,1.56921,185.401,86.646,36.2584
55.59,1.43148,-19.8566,1.33248,188.928,89.6079,37.1594
55.594,1.48741,-19.4463,1.29173,192.163,94.638,36.9808
55.6,1.44418,-18.9768,0.983261,194.782,100.33,36.0075
55.604,1.52863,-18.3273,0.720057,197.141,105.505,34.1443
55.609,1.52674,-16.9042,1.71045,199.145,106.665,32.3174
55.615,1.46783,-15.0992,2.52299,204.166,100.632,32.7736
55.619,2.13373,-14.0978,3.59705,210.312,87.241,34.0276
55.625,2.80996,-13.6098,4.25579,216.28,68.1254,37.2691
55.629,3.2505,-13.3377,4.60586,219.705,49.3184,41.2457
55.635,3.67104,-12.6399,4.76722,219.007,33.2311,44.9519
55.639,4.04294,-11.488,4.26714,215.348,19.3479,47.0854
55.644,4.45546,-10.057,3.68774,208.555,5.59743,47.2937
55.65,5.00044,-9.18606,3.30184,198.402,-12.0772,48.0933
55.655,5.03335,-9.03176,3.17038,185.636,-37.2772,53.9153
55.66,3.9504,-9.37186,3.75304,174.245,-63.2961,61.4531
55.664,4.23431,-8.49008,4.10106,166.191,-86.1209,64.6065
55.67,3.80263,-7.55798,4.04728,158.652,-95.2739,61.2081
55.674,3.14705,-7.44317,3.6905,153.58,-90.5002,56.3653
55.68,2.46544,-7.22923,4.02125,148.833,-82.135,52.8838
55.684,1.94409,-6.59897,4.70899,143.319,-72.7347,50.4606
55.69,1.49284,-5.81454,4.71556,133.567,-60.8229,49.4279
55.695,0.367169,-4.91943,4.40049,119.688,-45.6534,49.3086
55.699,-0.341397,-3.76796,4.40868,101.879,-28.9479,49.7661
55.705,1.12009,-3.77027,3.92044,83.5951,-17.919,46.2221
55.709,3.17647,-4.14851,2.49957,65.4686,-16.3872,43.9874
55.715,3.33513,-4.80088,0.483714,52.4878,-19.753,40.6108
55.719,2.10393,-5.34376,-1.30319,42.3147,-21.936,39.463
55.725,1.7824,-4.9221,-1.91169,29.3473,-20.6397,39.4708
55.729,2.12673,-4.21497,-1.93195,15.3835,-21.4857,39.7996
55.734,2.22238,-3.62361,-2.02744,2.67747,-23.8244,40.6615
55.74,2.31452,-3.17031,-2.24293,-8.73395,-24.8178,40.72
55.744,2.38426,-3.03105,-2.48246,-19.273,-25.2797,41.2425
55.75,2.18183,-3.1356,-2.63543,-29.9792,-26.8373,43.4863
55.754,1.85674,-3.31354,-2.48198,-40.7443,-29.2597,47.3533
55.76,1.6475,-3.34193,-2.07568,-51.076,-32.3386,52.4331
55.764,1.72376,-3.21354,-1.70154,-60.237,-37.4921,57.873
55.769,1.772,-3.06062,-1.19323,-68.7666,-44.1591,62.5752
55.775,1.74663,-3.02703,-0.533956,-77.5377,-50.0138,66.111
55.78,1.83554,-2.99497,-0.0147175,-86.6737,-54.7169,69.2948
55.785,2.09066,-2.97495,0.355199,-96.0748,-58.6313,72.3704
55.789,2.18189,-3.15147,0.696383,-106.058,-61.8034,74.8795
55.795,2.29745,-3.2065,0.944684,-115.719,-62.9012,77.9136
55.799,2.39501,-3.36118,1.01026,-124.837,-63.2315,80.4627
55.805,2.45261,-3.59887,1.0035,-133.886,-64.4489,83.0537
55.809,2.47466,-3.73944,1.01909,-143.119,-66.1304,85.6408
55.815,2.6177,-3.8321,1.06607,-152.417,-68.0307,87.792
55.82,2.67655,-3.97692,1.19564,-161.917,-69.5858,89.8515
55.824,2.66983,-4.14654,1.30802,-171.154,-70.8293,92.0225
55.83,2.77365,-4.23135,1.38384,-180.088,-71.4988,93.7481
55.834,2.83654,-4.38883,1.47621,-189.019,-72.1795,94.6922
55.84,2.93012,-4.48996,1.57991,-197.84,-71.7277,95.1536
55.844,3.03947,-4.72667,1.62652,-206.057,-71.0873,95.1295
55.85,3.22756,-5.03626,1.74343,-214.399,-70.7179,95.0892
55.854,3.3732,-5.3276,1.77306,-222.716,-70.2361,94.8093
55.859,3.56344,-5.67381,1.8718,-231.106,-69.8579,94.0539
55.865,3.69672,-5.99757,2.07391,-239.467,-69.0444,92.6821
55.869,3.89017,-6.34649,2.19366,-247.288,-67.6507,91.2193
55.875,4.01432,-6.72721,2.33518,-254.621,-66.8928,89.7108
55.879,4.21565,-7.01535,2.57081,-262.165,-66.2735,88.0221
55.885,4.36446,-7.2832,2.65325,-269.99,-64.9111,85.7207
55.889,4.53236,-7.62963,2.6374,-277.286,-64.3601,83.2335
55.895,4.58881,-8.05457,2.7792,-284.221,-63.8083,80.691
55.9,4.74049,-8.51455,2.87786,-290.905,-63.2358,78.1687
55.905,4.92595,-9.06987,2.97433,-297.351,-63.3196,75.5807
55.91,4.92275,-9.7251,3.13483,-303.146,-63.5519,73.208
55.914,4.95042,-10.4066,3.24346,-308.275,-63.5065,71.1591
55.92,5.05302,-10.9022,3.30573,-312.853,-65.0559,69.4599
55.924,5.13086,-11.335,3.52407,-317.159,-68.7506,67.4976
55.93,5.50009,-11.8199,3.61903,-321.349,-72.9978,64.6666
55.934,5.8086,-12.3303,3.85542,-325.457,-77.7891,61.5578
55.94,5.91855,-13.0212,4.02673,-328.996,-81.4705,58.951
55.945,6.17988,-13.8016,4.45825,-332.354,-83.7228,56.334
55.949,6.4818,-14.6022,5.06012,-335.052,-85.8272,54.4147
55.955,6.81996,-15.3906,5.86776,-336.662,-88.4507,52.3176
55.959,7.44427,-16.0021,6.77464,-337.572,-92.8125,49.9443
55.965,8.15588,-16.4634,7.77932,-337.672,-99.8655,46.7652
55.969,9.02021,-16.8835,8.86431,-337.384,-109.81,42.4573
55.975,9.85356,-17.3853,9.96751,-336.852,-120.42,37.3016
55.979,10.752,-17.906,11.2112,-335.826,-130.167,31.765
55.984,11.7111,-18.1772,12.5063,-334.209,-138.252,26.074
55.99,12.605,-18.1758,13.8226,-331.896,-142.72,19.3244
55.994,13.3249,-17.9985,14.985,-328.8,-141.754,11.7099
56,13.7545,-17.7424,16.025,-324.548,-135.293,2.04023
56.004,13.7567,-17.3337,17.0606,-319.707,-123.688,-8.55798
56.01,13.5455,-16.8643,18.1587,-314.044,-107.106,-20.9772
56.014,13.1027,-16.4049,19.4852,-306.231,-86.7284,-35.8514
56.02,12.3252,-15.8161,20.8425,-296.221,-63.8047,-52.876
56.025,11.3529,-14.7997,22.073,-285.432,-40.3838,-70.4565
56.03,10.1314,-13.1509,23.4255,-277.504,-15.1871,-84.5025
56.035,8.52742,-11.2501,24.0848,-271.771,17.9671,-92.2009
56.039,7.37661,-8.67348,23.8817,-266.979,57.2668,-95.0642
56.045,6.54125,-6.52028,23.7395,-258.763,92.8153,-99.4092
56.049,6.36304,-5.48117,24.2047,-242.823,123.477,-106.208
56.055,6.26059,-5.38685,24.5822,-220.787,151.285,-111.941
56.059,5.96527,-5.38232,24.7743,-197.727,175.276,-112.229
56.065,5.6332,-5.16107,24.9826,-173.846,192.245,-108.455
56.07,5.34572,-5.17257,24.6864,-146.432,198.634,-103.11
56.074,4.89417,-6.20832,23.905,-114.883,193.314,-97.127
56.08,4.28458,-7.08837,22.8205,-81.1485,179.093,-87.8685
56.085,3.95718,-8.38025,21.6746,-47.3015,158.616,-78.7678
56.09,3.77813,-10.3938,20.4434,-16.4856,134.896,-70.1519
56.095,3.23822,-11.4155,19.496,10.9638,112.645,-57.6853
56.1,2.54329,-10.3506,18.9578,35.7502,94.5038,-43.194
56.105,1.36302,-8.48297,18.235,57.4874,79.7481,-30.0261
56.11,0.605084,-7.35686,17.4435,77.649,65.0189,-19.8985
56.115,3.94704,-11.0628,18.1136,100.982,45.8953,-25.049
56.121,-1.11539,-13.2203,14.7291,124.002,37.0724,-25.2293
56.126,-7.05483,-9.14473,9.65192,128.763,40.2715,-0.0725666
56.131,-6.44968,-8.7507,4.51333,143.235,5.39748,14.9749
56.136,-7.15329,-10.446,-1.73503,135.788,-42.2695,31.471
56.141,-10.4367,-14.335,-8.91443,112.016,-68.3788,44.4546
56.146,-13.9294,-19.7783,-16.5642,98.5838,-78.7757,52.988
56.151,-17.0408,-22.4787,-22.8865,89.3355,-86.0422,61.8705
56.156,-17.7041,-20.9393,-25.8456,81.6601,-105.395,64.7187
56.162,-13.71,-14.5045,-19.5623,78.1559,-140.878,57.467
56.167,-8.42843,-8.70391,-5.90485,81.2192,-178.317,49.1246
56.172,-7.61577,-9.30612,3.31129,91.7899,-191.125,42.5669
56.177,-6.01075,-13.4029,8.72108,110.501,-183.709,30.5579
56.182,-3.08957,-14.0533,12.896,130.477,-190.253,28.6605
56.187,0.126893,-12.5485,13.6712,144.256,-196.342,26.6282
56.192,3.19908,-10.8616,13.0282,143.112,-184.515,14.441
56.197,3.41165,-11.4858,10.9531,131.478,-152.446,-1.87643
56.202,2.81932,-12.0345,9.41509,119.826,-114.815,-12.5722
56.208,1.26375,-11.5574,8.91292,116.797,-88.4453,-18.3044
56.213,-0.801224,-10.3987,9.30436,113.141,-62.2028,-19.2523
56.218,-1.2262,-9.07716,9.36324,107.578,-37.2285,-20.5736
56.223,0.0637963,-8.77536,7.9465,100.16,-17.674,-26.4316
56.228,1.977,-9.83387,4.97615,93.6408,-0.328975,-34.5223
56.233,3.77676,-10.8478,1.77116,90.6101,12.3808,-38.4286
56.238,5.88632,-9.71681,0.465133,90.5428,12.4921,-36.0378
56.243,7.75202,-7.04483,1.26354,94.3005,5.24788,-32.1485
56.249,8.44416,-5.80571,2.63958,98.8867,-2.22791,-28.4994
56.254,7.76414,-6.72967,3.3779,102.751,-7.91507,-21.0568
56.259,6.89266,-7.57485,3.43475,103.021,-14.7038,-7.2495
56.264,6.1886,-7.84072,2.85049,101.561,-22.1237,6.12863
56.269,5.22874,-7.68378,1.92962,98.0894,-26.0454,13.6689
56.274,4.2669,-7.25671,1.5705,92.8636,-23.4706,17.0839
56.279,3.25848,-6.9427,2.11054,87.8549,-16.9109,18.3362
56.285,2.29137,-7.22359,3.19875,84.9254,-10.4329,18.6474
56.289,1.58048,-7.89465,4.46823,83.8067,-5.95338,19.0635
56.295,1.57205,-8.59823,5.16506,84.3145,-1.50742,18.0016
56.299,1.45302,-9.42481,4.81864,86.4625,3.43526,14.7486
56.305,0.83686,-10.0429,4.36107,87.802,5.54748,12.2278
56.309,0.289784,-9.33354,4.34203,86.1803,4.95789,9.28191
56.315,-0.104803,-8.41129,4.7532,84.7613,4.87661,4.03223
56.32,-0.371475,-8.81502,5.09573,83.145,7.08508,-1.67071
56.324,-0.258184,-10.3123,5.34148,77.8404,9.49185,-3.22054
56.33,0.152677,-10.2255,5.14563,72.9889,11.1785,-2.62217
56.334,0.306661,-9.05324,3.91691,75.9234,10.078,-8.89228
56.34,0.648531,-9.3861,3.105,78.9806,6.44881,-15.2018
56.344,1.17035,-9.51419,2.6809,80.6742,1.97154,-18.3223
56.35,1.62916,-9.04433,2.45516,81.1675,-0.437872,-19.5722
56.354,1.99933,-8.82896,2.15328,80.8998,-2.44888,-19.7355
56.359,2.4898,-8.57191,2.29063,78.3979,-4.41636,-17.5471
56.365,2.84302,-8.10574,2.26189,76.5814,-6.31082,-14.5076
56.369,3.13643,-7.53408,2.63609,73.8972,-8.46607,-11.898
56.375,3.11294,-7.20833,3.59718,70.5329,-8.33257,-9.66801
56.379,3.10341,-7.15395,4.3288,66.9148,-5.44571,-7.85053
56.385,3.12307,-7.19096,4.80602,62.9981,-1.66332,-6.76244
56.389,2.91821,-7.64272,4.63259,59.565,2.88084,-6.54066
56.395,2.64899,-7.80549,4.45393,56.1804,6.50881,-5.6096
56.4,2.35741,-7.74863,4.38573,53.0328,7.72349,-4.77619
56.405,2.15978,-7.85422,4.58146,50.3874,8.25955,-4.30221
56.41,1.89124,-8.18056,4.72236,48.1994,9.25748,-4.0612
56.414,1.68739,-8.23251,4.7512,45.6792,9.20922,-3.98811
56.42,1.66844,-8.30741,4.81651,42.8379,8.50972,-4.81306
56.424,1.6983,-8.25994,4.94916,40.2678,9.04929,-5.46365
56.43,1.61321,-8.27933,4.99463,38.1203,10.6844,-6.56619
56.434,1.29114,-8.32424,4.91575,36.1505,13.0919,-7.70744
56.44,1.16403,-8.46126,4.90655,34.4735,15.3389,-9.35964
56.445,1.16235,-8.68341,4.73391,33.5265,17.3312,-11.4905
56.449,1.39115,-8.84401,4.45312,32.7073,18.776,-12.7929
56.455,1.82055,-8.75221,4.28351,32.0686,20.6963,-13.31
56.459,2.0791,-8.42019,4.01379,31.9516,23.5422,-14.0378
56.465,2.13494,-8.26,3.96914,31.8261,25.6537,-14.8313
56.469,2.18317,-8.19937,4.06355,31.6032,26.5952,-15.0652
56.475,2.17155,-8.1705,4.1783,31.5794,27.145,-14.4059
56.479,2.2302,-8.13127,4.15036,31.3354,27.4841,-13.5731
56.484,2.29541,-8.11668,4.19689,31.2691,27.0258,-13.2046
56.49,2.32555,-8.2154,4.17078,30.3904,26.5111,-12.4965
56.494,2.43232,-8.23464,4.17162,29.2545,26.2838,-11.851
56.5,2.43104,-8.39159,4.31975,27.9376,26.7706,-11.1691
56.504,2.36994,-8.43061,4.36338,27.3292,27.6879,-10.2893
56.51,2.28342,-8.37424,4.30526,26.8964,27.8134,-9.48311
56.514,2.20919,-8.30455,4.32781,26.096,27.8604,-8.65864
56.52,2.04647,-8.32929,4.34075,25.7284,27.5425,-7.83621
56.525,1.89569,-8.21224,4.30686,25.1766,26.5675,-7.01485
56.53,1.85012,-8.15474,4.42176,24.9235,24.9363,-6.26834
56.535,1.84699,-8.23097,4.4954,24.7071,23.3802,-5.68475
56.539,1.79658,-8.24758,4.51407,24.6334,22.1354,-4.97141
56.545,1.84135,-8.1344,4.36456,24.6984,20.7382,-4.1598
56.549,1.95187,-8.19159,4.35773,24.6761,19.3324,-3.92056
56.555,2.09832,-8.25754,4.36394,25.2165,18.1035,-3.63317
56.559,2.11543,-8.24056,4.381,26.0678,17.4166,-3.32326
56.565,2.09908,-8.26003,4.40064,26.5107,17.4002,-3.25396
56.57,2.1145,-8.23762,4.37498,27.0252,16.966,-2.72067
56.574,1.9966,-8.38888,4.42588,27.7087,16.4287,-2.69981
56.58,1.99346,-8.3748,4.24685,28.9935,15.1839,-2.38916
56.584,1.98219,-8.20483,4.27055,29.8133,14.1194,-1.48301
56.59,1.91273,-8.18785,4.41882,30.8127,12.9663,-1.42305
56.594,1.67246,-8.16596,4.43219,32.1956,10.8893,-1.29064
56.6,1.3819,-8.04126,4.33983,33.6813,8.39191,-0.894274
56.604,1.34552,-7.9671,4.13432,35.4375,5.89784,-0.343981
56.609,1.49824,-8.05985,3.95915,37.6412,3.65809,0.309921
56.615,1.65378,-8.24068,4.08676,40.3608,1.1716,1.10355
56.619,1.88037,-8.39149,4.17243,43.0693,0.0992326,2.2487
56.625,2.08617,-8.53646,4.24892,45.413,0.178452,3.04175
56.629,2.29883,-8.62471,4.37101,47.7319,1.09896,3.27926
56.635,2.3221,-8.60091,4.33339,50.3235,2.15818,3.68779
56.639,2.17731,-8.65148,4.01911,53.3875,2.63045,4.7555
56.645,2.19728,-8.65511,4.18163,56.5003,1.71163,5.71945
56.65,2.24824,-8.8732,4.70276,59.0956,1.42552,6.53814
56.655,2.30219,-8.8944,4.89712,61.5001,1.78681,8.13779
56.66,2.39119,-8.93987,4.97155,63.3898,3.15562,8.80513
56.664,2.39196,-9.06561,4.97487,65.5527,5.04356,9.24724
56.67,2.09245,-9.12588,4.98011,68.6527,7.59293,9.77062
56.674,1.92392,-9.10196,4.79707,71.3185,8.3698,10.6602
56.68,1.72982,-9.43566,5.13973,73.5087,8.83752,11.6662
56.684,2.00037,-9.63626,5.54431,76.6502,10.0646,12.8475
56.69,2.18063,-9.8083,5.32627,79.4137,11.438,13.5766
56.695,1.56954,-10.1186,5.31849,81.2112,13.1433,14.8582
56.699,1.29193,-10.0726,5.4368,84.2032,14.5083,16.2751
56.705,1.47901,-9.97131,5.36227,87.5799,13.4686,18.1574
56.709,1.589,-10.4797,5.69485,90.317,12.7331,19.8984
56.715,1.81056,-10.7978,5.8405,92.7809,13.048,22.2903
56.719,2.06515,-10.8953,6.04674,95.4917,14.3951,23.8871
56.725,2.0694,-11.0655,6.0088,97.3808,16.0978,24.9595
56.729,2.03852,-11.2556,5.96269,99.0952,17.685,26.0994
56.734,2.11923,-11.413,5.94967,101.753,19.438,27.7568
56.74,2.27488,-11.7738,6.20256,104.645,21.3067,29.3375
56.744,2.35444,-12.0701,6.43393,107.414,24.0881,31.3335
56.75,2.53438,-12.4876,6.21042,109.883,27.1973,33.3898
56.754,2.63462,-13.0461,6.00272,113.419,30.081,35.5599
56.76,2.69134,-13.4491,5.98784,118.044,33.2432,37.9894
56.764,2.72993,-13.7683,5.7921,122.785,35.2276,40.36
56.77,2.64111,-14.2049,5.5854,127.647,36.691,42.7006
56.775,2.62985,-14.7819,5.50384,132.885,38.9673,45.0886
56.78,2.71686,-15.3135,5.27325,138.246,41.9006,47.4871
56.785,2.59267,-15.8887,5.02343,143.848,44.8864,49.438
56.789,2.30962,-16.325,4.68699,150.185,47.6953,50.9473
56.795,1.80012,-16.6528,4.58275,156.182,49.9592,52.2433
56.799,1.21789,-16.9676,4.35148,161.768,52.5188,54.0859
56.805,0.767371,-17.6002,3.89951,167.315,55.2483,55.6779
56.809,0.398008,-18.4072,3.7228,173.183,57.7272,58.5525
56.815,0.416297,-19.1257,3.57907,178.313,62.005,61.8843
56.82,0.747566,-19.9715,3.13505,183.374,66.6483,65.1622
56.824,1.04543,-20.8114,2.15509,188.099,71.2046,67.8671
56.83,1.30265,-21.8078,1.47792,193.893,75.248,69.4797
56.834,1.31621,-22.0896,1.4678,199.592,80.593,71.6932
56.84,1.64076,-21.7189,1.12305,202.795,87.2901,73.3499
56.844,2.08785,-21.5767,0.245065,205.146,95.0638,72.2691
56.85,2.0731,-20.6965,0.0333636,207.968,97.8755,70.976
56.854,1.99486,-18.9708,0.178839,211.774,91.8194,71.5591
56.859,2.21925,-17.1022,0.689729,216.324,77.2756,73.6601
56.865,3.09618,-16.0896,1.52756,222.028,54.6108,77.1512
56.869,3.48771,-15.2461,2.45278,228.858,29.3862,83.5352
56.875,3.89313,-14.1757,2.71046,232.923,5.65113,89.6163
56.879,4.00718,-13.3292,2.86581,231.716,-14.1582,92.3628
56.885,4.43977,-11.8058,2.7999,228.126,-31.1605,93.6926
56.89,4.48904,-10.3989,2.44339,222.49,-46.562,94.1788
56.895,4.65622,-9.42664,1.8378,212.996,-61.8882,95.6822
56.9,4.54573,-8.95626,0.866847,199.968,-79.976,99.4848
56.905,4.12685,-8.76338,0.918716,184.913,-102.335,104.911
56.91,5.40811,-7.28057,1.36444,170.319,-131.95,107.602
56.915,4.21073,-6.73765,2.2885,156.039,-145.065,104.472
56.92,2.93044,-6.71363,3.07514,146.991,-139.606,101.496
56.926,2.12459,-6.3549,3.60964,142.186,-130.64,100.884
56.931,1.47753,-6.08272,4.29436,138.313,-121.471,100.713
56.936,0.892279,-5.87737,4.52622,131.232,-109.941,100.587
56.941,-0.191129,-5.28071,4.51567,119.417,-98.3431,103.838
56.946,-0.444964,-4.16297,4.67713,102.886,-91.6747,109.289
56.951,1.68091,-3.95573,4.13184,86.8248,-92.6672,110.838
56.956,4.23838,-4.83625,1.7654,71.8074,-102.231,110.619
56.961,4.72526,-5.65098,-1.21302,57.3795,-116.041,112.989
56.966,4.10398,-5.34751,-2.26286,42.1432,-122.728,114.205
56.972,4.31045,-4.61783,-1.72604,27.9232,-120.422,109.664
56.977,4.7916,-4.32064,-1.42698,15.8846,-116.855,104.868
56.982,5.09399,-4.05644,-1.47404,5.84849,-112.329,103.091
56.987,5.16626,-3.46933,-1.75438,-3.66962,-105.869,102.71
56.992,4.91759,-3.10643,-2.0452,-14.8519,-97.351,102.376
56.997,4.70379,-2.99967,-2.14288,-27.8982,-87.3818,102.793
57.002,4.44231,-3.03076,-2.01515,-40.3028,-78.7744,104.968
57.007,4.32336,-2.97727,-1.84148,-50.6013,-73.1026,109.17
57.013,4.3141,-2.79181,-1.58232,-59.7011,-69.4498,113.511
57.018,4.34919,-2.76882,-1.25701,-69.1088,-67.9666,117.425
57.023,4.36746,-2.83884,-0.757635,-78.9043,-67.9733,121.205
57.028,4.39396,-2.97654,-0.0148398,-88.6946,-68.4236,125.011
57.033,4.49157,-3.0994,0.68623,-98.1418,-68.0059,128.654
57.038,4.68256,-3.20642,1.30077,-107.38,-67.2939,131.245
57.043,4.93511,-3.34288,1.74699,-116.239,-66.489,133.484
57.049,5.06587,-3.4643,1.90354,-125.042,-66.1474,135.682
57.054,5.15198,-3.63889,1.95738,-133.808,-66.0647,137.312
57.059,5.23466,-3.7764,1.95753,-142.209,-65.987,138.496
57.064,5.36092,-3.8869,1.92612,-150.42,-66.2745,139.715
57.069,5.51495,-4.04392,1.91721,-158.588,-66.5503,140.4
57.074,5.69032,-4.17491,1.92152,-166.407,-66.2142,140.553
57.079,5.83457,-4.42442,1.9109,-174.38,-65.772,140.104
57.084,5.83079,-4.60327,2.01069,-182.723,-65.0166,140.058
57.09,5.90357,-4.7469,2.0094,-190.949,-63.489,139.983
57.094,5.99946,-4.93341,1.96843,-199.348,-62.7506,138.775
57.1,6.10386,-5.20288,1.9504,-207.445,-62.8148,136.692
57.104,6.21657,-5.46487,1.92332,-215.265,-63.3249,134.399
57.109,6.47136,-5.82763,1.90518,-223.102,-64.2092,131.586
57.115,6.66017,-6.21792,1.99407,-230.983,-65.7157,128.477
57.119,6.86266,-6.4014,2.23868,-238.532,-66.3168,125.128
57.125,7.1282,-6.71629,2.38675,-245.384,-66.7321,121.084
57.129,7.38092,-7.07303,2.57725,-252.441,-67.6461,117.313
57.135,7.57018,-7.32296,2.73446,-259.671,-68.6814,113.218
57.139,7.82865,-7.54808,2.80564,-266.537,-69.5285,108.675
57.145,7.99981,-7.91238,2.81102,-273.135,-70.1271,103.873
57.15,8.06807,-8.34449,2.87143,-279.615,-71.3824,99.0228
57.155,8.20778,-8.78913,2.98702,-285.812,-72.8646,94.4065
57.16,8.33543,-9.34525,3.14903,-291.862,-73.0505,89.9631
57.164,8.33516,-9.89429,3.42549,-297.192,-72.9844,85.3865
57.17,8.37494,-10.2895,3.74409,-301.875,-75.4804,80.9644
57.174,8.4387,-10.7042,4.06083,-306.423,-78.2124,76.2126
57.18,8.34761,-11.2734,4.44035,-310.296,-79.6927,71.0463
57.184,8.3013,-11.8679,4.82717,-313.25,-81.6467,66.2347
57.19,8.34918,-12.3599,5.26093,-315.572,-85.5929,62.2939
57.195,8.37388,-12.8016,5.82924,-317.347,-90.696,58.2869
57.199,8.50122,-13.2646,6.46652,-318.3,-96.6298,53.9909
57.205,8.68899,-13.6978,7.15079,-318.659,-103.291,49.928
57.209,8.94025,-14.0661,7.80755,-318.202,-110.861,45.5389
57.215,9.11201,-14.4449,8.38774,-316.939,-120.262,41.1521
57.219,9.44149,-14.5591,8.9889,-315.445,-131.246,36.6364
57.225,9.64845,-14.6085,9.70896,-314.095,-141.968,31.5919
57.229,9.751,-14.68,10.6016,-312.819,-149.357,26.099
57.234,9.86733,-14.6269,11.4274,-311.514,-152.65,20.8525
57.24,9.98838,-14.5205,11.936,-309.806,-152.598,15.8655
57.244,10.0319,-14.4579,12.6977,-307.717,-149.795,10.1735
57.25,9.88542,-14.5477,13.7681,-304.275,-143.644,3.28785
57.254,9.59282,-14.5507,15.025,-300.089,-133.171,-3.93253
57.26,9.1484,-14.5232,16.3353,-296.125,-117.997,-11.7361
57.264,8.70212,-14.5304,17.4426,-290.367,-99.3457,-19.8659
57.27,8.47979,-14.2984,18.3696,-282.622,-80.7681,-28.3368
57.275,8.37574,-13.7737,18.9645,-274.111,-65.0345,-37.4874
57.28,8.27327,-13.1088,19.7303,-265.328,-49.5851,-47.6907
57.285,8.21544,-11.9714,20.2554,-256.694,-30.816,-55.1873
57.289,8.28562,-10.195,20.6119,-251.928,-10.4259,-58.8762
57.295,8.25225,-9.05541,20.7578,-244.648,7.98461,-62.7044
57.299,7.99404,-8.5525,21.3582,-231.88,24.4156,-66.2083
57.305,7.68879,-8.6678,22.277,-213.926,42.4324,-69.6881
57.309,7.2217,-8.58666,23.2175,-192.496,59.7668,-70.6421
57.315,6.58051,-8.08221,23.7216,-168.68,70.7536,-69.3856
57.32,5.76171,-7.5636,24.4273,-143.784,75.0022,-67.2168
57.324,4.75422,-6.82221,24.662,-116.27,72.6067,-63.3562
57.33,3.69152,-6.89157,24.3656,-87.2577,64.2979,-59.0695
57.334,2.54012,-7.32338,23.9594,-58.5351,53.8505,-53.0665
57.34,1.94115,-7.7699,22.7917,-29.6621,42.8754,-44.8719
57.344,1.84318,-8.55547,21.2829,-1.09844,29.4025,-37.1198
57.35,1.69828,-9.06537,19.5657,26.3869,12.6634,-27.9827
57.354,2.39813,-10.3819,18.8318,51.9932,-3.76195,-20.6332
57.359,3.07308,-15.9924,18.8925,82.7863,-14.1358,-28.9675
57.365,-1.49295,-10.5507,16.4493,109.365,-9.8884,-16.5892
57.369,-3.22776,-6.22499,14.5714,130.004,-24.4683,-2.92418
57.375,-4.14032,-6.52745,10.6542,150.788,-62.3551,14.1923
57.379,-4.81988,-8.32362,2.43598,142.359,-100.082,34.9073
57.385,-5.25862,-13.5094,-8.75654,115.191,-123.571,45.9096
57.389,-7.61255,-17.6688,-16.4844,89.7335,-132.201,49.3011
57.394,-9.84301,-19.7698,-20.1397,81.684,-131.893,47.5378
57.4,-8.75828,-18.015,-17.9946,86.2935,-144.752,41.9692
57.405,-6.77145,-13.6721,-8.98746,94.5788,-166.196,32.8632
57.41,-7.30297,-12.1181,1.29198,102.614,-175.006,25.9298
57.414,-7.62366,-12.8603,11.0173,117.185,-168.16,21.1619
57.42,-5.97188,-13.547,15.8908,142.023,-164.666,16.4774
57.424,-2.50319,-13.1102,16.5898,160.477,-170.688,11.0944
57.43,-0.33706,-12.7278,14.724,160.837,-163.137,1.82682
57.434,0.760554,-12.9665,12.0084,152.633,-136.135,-9.49019
57.44,1.78707,-12.3938,8.96509,141.763,-104.972,-19.1934
57.445,1.46901,-11.1519,6.07416,133.063,-80.7958,-28.1275
57.449,-0.0157664,-9.73809,4.74723,127.248,-67.581,-33.6861
57.455,-1.46544,-8.62015,5.80387,120.327,-55.9862,-34.7754
57.459,-1.17512,-7.76088,7.11363,112.804,-43.0623,-34.5428
57.465,0.826195,-7.44859,6.64247,107.025,-35.1572,-37.5085
57.469,3.4205,-7.35862,4.43518,103.562,-33.6433,-43.9931
57.475,5.72583,-8.06702,1.78438,102.707,-33.5959,-51.2054
57.479,7.13209,-8.7666,0.226983,103.453,-40.1353,-52.471
57.484,7.338,-8.47396,1.45237,105.99,-50.7216,-45.7091
57.49,6.55774,-8.33529,3.96008,110.667,-57.2249,-32.1494
57.495,5.66995,-8.34808,5.44439,115.011,-59.0596,-18.6868
57.5,4.8171,-8.38474,5.25333,115.204,-55.4998,-10.0996
57.505,4.55074,-7.77796,4.43746,108.735,-43.2468,-5.8001
57.51,4.19167,-7.30559,3.99635,99.4617,-22.9957,-5.60543
57.515,3.26288,-7.27953,4.29254,93.5102,-0.986336,-6.27617
57.52,2.29617,-7.58281,4.87532,92.4954,14.3036,-5.84261
57.525,1.88805,-8.07919,5.55959,94.6859,18.3895,-5.59389
57.531,1.82623,-9.00562,5.84037,97.3379,17.2633,-6.84107
57.536,1.41482,-9.75566,6.0554,96.8461,20.198,-8.00106
57.541,0.540453,-9.75547,6.32681,92.8107,29.9326,-10.4403
57.546,0.0622873,-9.06704,5.45778,86.3897,39.0587,-15.5719
57.551,-0.0159807,-8.13242,3.7838,81.0582,39.6093,-21.3661
57.556,-0.545424,-8.28344,2.91677,78.5091,31.5729,-26.4412
57.561,-0.851436,-9.06059,3.53602,76.5226,19.8982,-28.2867
57.566,-0.691835,-9.21009,3.94451,75.2056,8.58451,-29.3806
57.572,0.148026,-9.04198,3.79844,72.5187,-0.643113,-31.3315
57.577,0.867103,-8.72859,3.78356,70.0563,-5.43718,-33.7738
57.582,1.15161,-8.63629,3.90271,68.8404,-5.74175,-34.4623
57.587,1.20097,-8.65357,3.84487,68.3666,-4.01196,-33.4981
57.592,1.49578,-8.71619,3.6169,67.8954,-2.24522,-31.3046
57.597,1.95645,-8.51403,3.52667,66.3362,-0.950063,-29.3676
57.602,2.30094,-8.35616,3.34144,64.4087,-1.11009,-27.8407
57.607,2.57178,-8.15279,3.18212,61.974,-1.95699,-25.6013
57.612,2.68818,-8.00091,3.28007,59.4407,-2.49304,-23.1952
57.618,2.74818,-7.99276,3.51444,57.2309,-2.00306,-20.6781
57.623,2.72426,-8.01479,3.67474,54.935,-0.478955,-18.7102
57.628,2.69476,-8.05344,4.05221,52.8621,1.7717,-17.2948
57.633,2.48385,-8.06534,4.44778,51.3265,4.66005,-15.9906
57.638,2.20758,-8.15818,4.60477,49.7278,7.98627,-15.0934
57.643,2.00973,-8.15454,4.7054,47.7997,11.4964,-14.7344
57.648,1.7631,-8.19842,4.6763,45.8031,14.6523,-14.8283
57.653,1.61569,-8.4135,4.72347,43.3713,17.1824,-15.3541
57.659,1.49418,-8.66921,4.7811,40.6355,18.7213,-16.2677
57.664,1.54115,-8.8246,4.70578,38.2675,19.7653,-16.8006
57.669,1.59821,-8.9445,4.57013,35.7336,21.5691,-16.7922
57.674,1.73297,-9.05531,4.40408,33.6238,22.2736,-16.8516
57.679,1.80018,-8.98664,4.21044,31.951,22.5034,-16.4825
57.684,1.71294,-8.78246,4.21304,30.5556,22.4284,-15.9168
57.689,1.57202,-8.48339,4.08755,30.1274,21.255,-15.5019
57.695,1.64167,-8.3961,3.8151,30.3262,18.4383,-15.451
57.699,1.90697,-8.57556,3.89988,30.7244,15.6103,-14.9032
57.705,2.2997,-8.55947,4.06035,31.3475,14.1191,-14.0777
57.709,2.43385,-8.53435,4.0824,31.3881,13.7041,-13.4138
57.715,2.38975,-8.43245,4.01712,30.73,13.9215,-12.8675
57.719,2.12722,-8.36653,4.04395,30.5063,14.1023,-12.3088
57.725,2.04148,-8.23448,4.08724,30.5516,13.2437,-11.6194
57.729,2.00573,-8.24934,4.32892,30.0618,12.5972,-10.7929
57.734,2.06369,-8.23819,4.45476,30.2809,12.0472,-10.1737
57.74,2.04739,-8.0298,4.41428,30.2482,11.7215,-9.98811
57.744,2.06537,-8.00834,4.53228,30.06,12.0294,-10.003
57.75,2.08571,-7.98301,4.60236,30.4684,12.7877,-9.74481
57.754,2.11811,-8.17514,4.71676,30.6924,14.3175,-9.46996
57.76,2.16271,-7.99772,4.50347,30.7701,15.9276,-8.93967
57.764,2.08503,-8.08126,4.40624,30.1038,17.2195,-8.83777
57.77,2.23427,-8.27921,4.39715,30.4054,17.9345,-8.87501
57.775,2.21863,-8.29377,4.54841,30.7902,18.0533,-8.77931
57.78,2.02063,-8.25545,4.42634,31.1646,18.2985,-7.94193
57.785,1.80831,-8.10096,4.27562,32.1133,17.1134,-7.40511
57.789,1.58486,-8.02029,4.36829,32.9918,14.8654,-6.93929
57.795,1.43752,-7.87322,4.42077,33.5201,12.5791,-6.34131
57.799,1.39554,-7.96871,4.43015,34.5381,9.98567,-5.77445
57.805,1.48629,-8.21405,4.51344,35.9018,8.01494,-4.95728
57.809,1.64122,-8.32901,4.47925,37.0562,5.848,-4.30047
57.815,1.91685,-8.40261,4.44286,38.1703,4.23701,-3.8997
57.82,2.12416,-8.35788,4.4366,39.3709,3.54192,-2.92051
57.824,2.24317,-8.47954,4.57962,40.348,3.50646,-2.99106
57.83,2.30644,-8.48153,4.74009,40.9678,4.45534,-2.96322
57.834,2.2178,-8.25429,4.76555,41.5658,5.23412,-2.67566
57.84,2.03159,-8.10467,5.00782,41.5279,5.92545,-2.91455
57.844,1.78096,-7.9906,5.11334,41.7839,6.40426,-3.2537
57.85,1.49409,-7.96358,5.07551,41.8312,6.49386,-3.75044
57.854,1.21714,-8.10634,5.13219,42.1962,6.29601,-4.19374
57.859,1.182,-8.00646,5.03033,43.6458,4.95926,-3.61398
57.865,1.35971,-7.94661,4.92567,44.1139,2.81384,-2.59886
57.869,1.74271,-8.31437,5.04894,45.0414,1.83905,-2.19865
57.875,2.0273,-8.45708,4.94326,46.7101,2.33475,-1.77741
57.879,2.40284,-8.4945,4.8635,47.6297,2.81492,-2.21792
57.885,2.64482,-8.57017,4.79703,48.5923,3.96924,-2.77271
57.889,2.29887,-8.76773,4.75013,50.0568,5.77518,-2.4571
57.895,2.04069,-8.96306,5.15107,52.3582,7.3697,-2.32468
57.9,1.62265,-8.85158,5.33429,54.7768,8.64171,-1.83431
57.905,1.26473,-8.99962,5.05097,56.9487,8.40676,-1.3618
57.91,1.19771,-9.28386,4.57658,59.9255,5.77366,-0.0975929
57.914,1.3616,-9.47241,4.69539,63.0699,2.61062,1.85197
57.92,1.55872,-9.43726,4.97124,66.6354,-0.0245708,4.13948
57.924,1.67335,-9.56427,5.27595,68.9224,-1.29079,5.35188
57.93,1.75082,-9.70821,5.46397,71.6582,-0.545639,6.69996
57.934,1.95421,-9.6999,5.55845,74.3191,0.674833,7.56415
57.94,2.00257,-9.75514,5.49365,76.7849,1.797,8.36196
57.945,1.97865,-9.75836,5.59082,78.9217,2.6707,9.42853
57.949,1.96358,-9.77832,5.6823,81.2624,3.66283,10.6184
57.955,1.97039,-9.96835,5.85117,83.6524,4.49959,11.725
57.959,1.93394,-10.0364,5.8654,85.9501,5.53194,13.0381
57.965,2.14271,-10.0222,5.74137,87.7871,6.16001,14.5642
57.969,2.2967,-10.1419,5.79627,89.9267,6.59569,16.0469
57.975,2.45219,-10.1579,5.79884,92.2918,7.31995,17.3934
57.979,2.55601,-10.2505,5.9698,94.6022,9.07559,17.9906
57.984,2.63039,-10.4219,6.13723,97.1797,11.6066,18.7308
57.99,2.7157,-10.549,6.12304,99.4613,14.3556,19.962
57.994,2.75656,-10.7935,6.0699,102.162,17.1632,21.1088
58,2.92452,-11.0957,6.1821,104.333,20.2605,22.4296
58.004,3.22663,-11.4882,6.18783,106.687,23.6866,23.7373
58.01,3.36493,-11.8272,6.16872,109.541,26.9611,25.088
58.014,3.39269,-12.1201,6.12445,112.489,30.7022,26.6517
58.019,3.5042,-12.3592,5.89953,115.303,35.3878,28.1631
58.025,3.53312,-12.9247,5.85914,118.658,39.7983,29.1664
58.03,3.44803,-13.6161,5.73689,122.966,43.2944,30.741
58.035,3.32388,-14.1209,5.64695,127.405,46.618,32.3566
58.039,3.12301,-14.447,5.46949,131.59,50.5519,33.5333
58.045,2.80003,-14.6229,5.12912,135.422,54.8854,34.426
58.049,2.34878,-14.7974,4.71025,139.898,59.0448,35.0861
58.055,1.67225,-15.2594,4.49404,145.79,62.5475,35.3057
58.059,1.01617,-16.0398,4.24884,151.279,66.3661,36.1287
58.065,0.6453,-17.0771,3.96394,156.739,68.7066,37.5448
58.07,0.500698,-17.8388,3.92695,161.945,70.7037,39.317
58.074,0.363118,-18.7374,3.5216,166,73.8565,41.2478
58.08,0.421207,-19.2929,3.00612,169.949,77.6746,42.5011
58.084,0.350787,-19.5557,2.66837,174.402,82.2428,43.4126
58.09,0.454634,-19.7325,2.14025,178.03,88.408,44.2113
58.094,0.640548,-19.7828,1.42146,181.137,96.2694,43.6388
58.1,1.19856,-19.419,0.638139,183.886,102.31,42.7184
58.104,1.4203,-18.5463,0.89617,188.727,104.227,41.697
58.109,1.48677,-17.2181,1.38103,195.031,100.051,42.0856
58.115,1.72833,-16.3423,2.27657,201.75,90.423,43.0979
58.119,2.42461,-15.3461,2.97828,208.672,72.5827,46.1355
58.125,3.25736,-14.9009,4.09034,215.074,51.7624,50.1761
58.129,3.70136,-14.2777,4.53119,220.021,32.8171,54.8205
58.135,3.88928,-13.3646,4.44131,220.912,17.2891,58.0218
58.139,4.15601,-12.2964,4.17158,220.608,4.72339,59.5062
58.144,4.584,-11.0903,3.84909,218.029,-9.08493,59.8139
58.15,4.71938,-9.90285,3.57769,211.859,-22.278,59.6649
58.154,4.81806,-9.17849,3.24989,201.519,-35.5054,59.7039
58.16,4.59185,-9.01717,2.94487,188.449,-52.8812,62.0184
58.164,3.72774,-9.38434,2.73903,176.768,-74.7887,66.9027
58.17,3.67763,-8.50862,2.54966,167.265,-96.8507,69.8756
58.174,2.81226,-7.71965,3.20787,156.945,-102.947,67.7151
58.18,2.11479,-7.41742,3.15045,149.867,-97.4714,66.7223
58.184,1.3847,-7.07263,3.3242,143.971,-90.7282,66.213
58.19,0.846508,-6.34839,4.12497,137.363,-82.8771,65.093
58.195,0.560741,-5.60108,4.45317,128.18,-72.3327,64.1308
58.199,-0.464784,-4.90024,4.82299,116.395,-60.4369,63.9359
58.205,-0.849191,-3.72667,5.43111,100.65,-46.3866,65.7389
58.209,0.959741,-3.26384,5.16179,81.8906,-38.0069,64.7089
58.215,3.13983,-3.92618,3.11942,63.3553,-41.7068,62.5564
58.219,3.31795,-4.60937,0.849732,49.9864,-51.2328,61.8114
58.225,2.09732,-5.23818,-0.805701,39.8157,-57.2325,61.0328
58.229,2.23029,-5.13712,-1.29798,26.9358,-57.2579,60.3831
58.234,2.95268,-4.39383,-1.12671,12.6543,-57.9574,60.2504
58.24,2.98273,-3.74162,-1.07978,-0.356393,-57.3778,58.7524
58.244,2.83674,-3.39971,-1.4917,-12.4972,-54.0196,56.9238
58.25,2.73837,-3.2492,-1.84826,-23.1704,-49.7683,55.014
58.254,2.40446,-3.41347,-2.00629,-33.3604,-46.1879,54.6417
58.26,2.02561,-3.63442,-1.98345,-43.2486,-44.4719,57.434
58.264,1.80227,-3.67768,-1.7648,-52.4241,-44.3425,62.4454
58.269,1.6681,-3.63265,-1.43697,-60.9993,-46.5367,68.1226
58.275,1.67343,-3.50848,-1.01975,-69.3091,-50.9483,73.8901
58.279,1.82258,-3.35293,-0.358305,-78.1073,-55.3403,78.482
58.285,1.99573,-3.32912,0.299906,-88.161,-58.2452,82.15
58.289,2.13856,-3.2095,0.887762,-98.2065,-60.2225,85.8808
58.295,2.27989,-3.17822,1.33772,-107.547,-61.8063,88.5804
58.3,2.41548,-3.3675,1.62022,-116.738,-62.7617,90.6424
58.305,2.62093,-3.67236,1.85087,-126.1,-62.9884,92.4072
58.31,2.76355,-3.95808,1.95596,-135.498,-62.9099,93.9386
58.315,2.75984,-4.27528,2.02259,-144.887,-62.2898,95.5386
58.32,2.71359,-4.58893,2.03282,-154.018,-61.8163,97.6091
58.325,2.74401,-4.66231,1.97717,-162.954,-61.6305,99.7517
58.33,2.72758,-4.80089,1.93117,-171.748,-61.8847,100.786
58.336,2.71475,-4.90988,1.9409,-180.77,-61.9894,101.54
58.341,2.74698,-4.96293,1.92911,-189.453,-60.9757,102.109
58.346,2.77206,-5.11684,1.96437,-197.908,-59.872,102.153
58.351,2.84737,-5.33962,2.04202,-206.161,-58.7333,101.892
58.356,2.91761,-5.5538,2.08661,-214.382,-57.9833,101.437
58.361,3.03793,-5.76156,2.14185,-222.599,-57.1035,100.609
58.366,3.16384,-6.08027,2.16877,-230.838,-56.3418,99.6295
58.371,3.22614,-6.35554,2.28752,-238.99,-55.5251,98.4209
58.376,3.34075,-6.59022,2.36855,-246.508,-54.8452,96.9031
58.382,3.52553,-6.91182,2.49533,-253.694,-54.7408,95.5382
58.387,3.6714,-7.24525,2.65275,-260.79,-55.4888,93.9382
58.392,3.78856,-7.47316,2.78233,-267.861,-56.3173,92.1012
58.397,3.90974,-7.79189,2.80998,-274.865,-57.0679,90.2919
58.402,3.99517,-8.22216,2.88767,-281.675,-58.4345,88.5402
58.407,4.13201,-8.65392,2.95293,-288.499,-59.8991,86.6945
58.412,4.2779,-9.14781,3.01314,-295.18,-61.1933,84.5708
58.417,4.41963,-9.65487,3.10945,-301.527,-62.5415,82.6115
58.423,4.50595,-10.1928,3.28669,-307.888,-63.2736,80.567
58.428,4.523,-10.8074,3.51703,-313.632,-63.192,78.5333
58.433,4.59989,-11.3904,3.72703,-318.492,-63.8055,76.2188
58.438,4.76869,-11.8412,3.9379,-322.958,-66.2302,74.0275
58.443,4.94323,-12.2989,4.18628,-327.388,-68.7728,71.6762
58.448,5.0983,-12.9194,4.49523,-331.202,-70.5852,68.9077
58.453,5.31002,-13.6627,4.79282,-333.871,-71.9204,66.7771
58.459,5.63012,-14.3859,5.29267,-335.575,-74.2073,65.2946
58.464,6.16351,-14.998,6.08012,-336.33,-78.7221,64.3255
58.469,6.81468,-15.444,7.00645,-336.558,-86.139,62.7335
58.474,7.51365,-15.7837,8.24725,-336.309,-96.0112,59.387
58.479,8.16199,-16.0651,9.66502,-335.991,-107.329,54.8413
58.484,8.69262,-16.3563,11.0733,-336.178,-116.723,48.6448
58.489,9.28861,-16.4574,12.4045,-335.902,-121.953,41.8856
58.494,9.71157,-16.4566,13.3973,-333.606,-124.704,35.0541
58.5,10.0356,-16.2591,14.2842,-329.873,-125.654,28.3477
58.504,10.2722,-15.6967,15.3017,-325.932,-123.22,21.8512
58.51,10.5309,-15.4836,16.1417,-320.855,-118.032,14.7304
58.514,10.7249,-15.3576,16.8427,-313.923,-110.934,6.84836
58.52,11.0077,-15.1501,17.8094,-306.661,-100.638,-2.86975
58.525,11.1018,-15.207,18.9958,-297.464,-88.8224,-14.8588
58.53,11.1282,-15.152,20.5019,-285.433,-74.1859,-28.8654
58.535,11.0461,-14.5005,22.0035,-274.259,-55.749,-42.7785
58.539,10.8671,-12.7588,23.2981,-266.927,-34.9588,-54.3248
58.545,10.2842,-11.1884,24.4838,-260.745,-12.5436,-65.2897
58.549,9.38995,-9.79439,25.7227,-252.155,16.3651,-73.7512
58.555,8.59257,-8.63476,26.9581,-238.591,52.43,-82.6892
58.559,7.48418,-7.76781,28.0568,-221.134,90.5449,-91.1782
58.565,5.85292,-7.13727,28.7745,-200.048,128.251,-96.9349
58.57,4.45512,-6.11948,28.3291,-176.556,161.591,-98.3071
58.574,3.53314,-4.70601,26.9116,-151.524,182.831,-95.8276
58.58,3.50531,-3.51921,25.0637,-124.871,188.101,-90.232
58.584,3.80948,-4.10975,23.938,-94.1064,180.636,-84.1559
58.59,4.20366,-5.86145,22.6245,-59.401,167.923,-74.9901
58.594,4.70935,-7.90835,21.0853,-24.9336,150.388,-64.2125
58.6,5.29617,-9.50937,19.7662,6.69028,127.826,-53.1203
58.604,5.45529,-10.7975,18.9505,34.667,104.534,-42.0661
58.609,4.99135,-10.5017,18.2645,59.3377,86.2873,-29.5474
58.615,6.59197,-10.8761,17.9843,80.5663,71.3885,-22.1381
58.619,4.24746,-13.639,16.5876,103.199,67.8891,-25.1899
58.625,-1.69616,-9.03715,12.5054,119.755,73.0652,-1.60979
58.629,-1.46233,-5.53743,9.0704,139.95,51.9506,7.43682
58.635,-0.663229,-5.90854,2.49461,144.558,3.9827,15.536
58.639,-2.102,-8.31855,-3.72275,120.475,-31.9881,24.7313
58.644,-6.00305,-13.8862,-9.67007,101.499,-46.5585,33.2948
58.65,-11.3116,-19.2663,-15.4391,91.8433,-47.1673,44.8541
58.655,-15.7928,-21.5951,-20.1602,86.5058,-49.2563,55.5614
58.66,-17.1344,-20.3293,-21.821,84.5833,-65.4328,60.1394
58.664,-12.7641,-14.9709,-16.2303,85.0353,-106.489,52.035
58.67,-7.46437,-10.2267,-3.35661,91.3274,-154.574,38.0087
58.674,-6.46661,-11.1171,5.67158,108.668,-168.676,24.0123
58.68,-3.69592,-12.8893,10.369,130.488,-167.831,13.2678
58.684,-1.04597,-12.6069,11.9555,147.615,-177.722,11.6793
58.69,1.42998,-10.7593,11.916,154.579,-183.258,9.89857
58.695,2.04903,-10.5333,10.1661,151.617,-169.514,-0.00900033
58.699,2.56356,-11.2237,7.71951,141.67,-144.447,-11.031
58.705,1.08803,-10.1453,4.86218,131.888,-129.765,-15.4591
58.709,-1.21418,-10.2068,3.68367,125.681,-122.041,-14.7641
58.715,-0.981586,-8.69589,5.44915,119.09,-117.918,-13.3899
58.719,1.16943,-6.7505,7.15428,112.546,-111.494,-19.7705
58.725,3.50688,-6.20522,7.93551,105.957,-100.73,-30.427
58.729,4.61044,-7.75891,6.7007,100.463,-82.2357,-39.4723
58.734,5.80497,-8.62089,5.49988,95.3027,-62.2783,-47.5167
58.74,6.85172,-9.63638,5.58209,93.7664,-49.0899,-52.1466
58.744,7.0457,-10.2183,7.09825,98.2999,-41.7508,-43.7906
58.75,6.63417,-10.2764,8.65455,107.054,-31.4164,-28.3719
58.754,5.85757,-9.82017,7.9541,114.741,-26.5058,-18.0006
58.76,5.00091,-9.5345,6.15586,116.483,-19.6373,-13.3706
58.764,4.66141,-8.34849,4.86893,108.799,3.73503,-10.009
58.769,4.28129,-7.09072,5.22074,96.9229,35.29,-10.9336
58.775,3.17393,-6.70473,6.161,90.4155,63.1488,-12.7397
58.779,2.25624,-7.21003,6.26884,90.7289,79.2024,-13.3014
58.785,1.9153,-7.83939,5.26526,93.463,81.3857,-13.9664
58.789,1.7064,-8.74842,3.31397,93.9599,74.4916,-15.6573
58.795,1.16689,-9.31529,2.185,89.4011,64.9317,-17.337
58.799,0.495471,-8.95444,2.61618,82.906,56.8598,-18.3333
58.805,0.12532,-8.45388,3.40385,78.1055,49.4424,-19.9496
58.809,0.182938,-8.46065,3.65414,76.1635,43.7186,-21.4224
58.815,0.322826,-8.72953,3.45598,74.6436,38.4707,-22.1466
58.82,0.295367,-8.90071,3.46427,72.5392,31.3061,-23.0849
58.824,0.266898,-9.01654,3.53012,69.997,24.5697,-23.6502
58.83,0.315227,-8.59345,3.43977,67.9835,19.1652,-24.3749
58.834,0.50168,-8.73351,3.54826,67.0988,14.437,-25.3796
58.84,0.931086,-9.11702,3.72138,66.6742,12.0168,-25.7667
58.844,1.50644,-9.63092,3.42055,66.5473,11.4174,-25.797
58.85,2.07498,-9.56984,2.86081,65.7165,10.4188,-25.1865
58.854,2.75897,-9.10796,2.64987,64.0325,7.96974,-24.5216
58.859,3.16697,-8.67293,2.75729,62.4944,5.6759,-22.495
58.865,3.05718,-8.23019,3.02794,60.2308,3.66808,-19.1513
58.869,2.56527,-7.80023,3.36632,58.1265,0.776191,-15.5843
58.875,2.2234,-7.48146,3.82904,56.0231,-3.87834,-12.4401
58.879,2.2404,-7.45737,4.13104,54.5966,-6.5725,-10.0926
58.885,2.31675,-7.56064,4.4075,54.1262,-4.75935,-8.70056
58.889,2.36385,-7.59799,4.7472,53.582,-0.854791,-8.16826
58.894,2.26951,-7.65178,4.82678,51.8955,4.46492,-8.22477
58.9,2.02671,-7.90151,4.59789,50.1511,8.49119,-8.27259
58.905,1.89945,-8.01156,4.46112,47.9431,10.7421,-8.14493
58.91,1.80336,-8.05251,4.59288,45.1791,11.2723,-8.0433
58.914,1.82533,-8.14066,4.67205,42.6433,10.7978,-8.0786
58.92,1.70428,-8.05026,4.67386,40.5398,9.81731,-8.52381
58.924,1.62566,-8.1419,4.53858,38.5514,8.75933,-9.02451
58.93,1.49397,-8.2233,4.50015,37.3856,7.86693,-8.98935
58.934,1.4608,-8.4402,4.59734,36.6859,6.74224,-9.13903
58.94,1.51825,-8.52774,4.49641,35.7897,5.33184,-8.96156
58.945,1.54954,-8.56241,4.28832,34.73,3.24706,-8.65135
58.949,1.79053,-8.54515,4.1532,33.6053,0.891382,-8.36624
58.955,1.97308,-8.37391,4.20859,33.0479,-1.01673,-7.99869
58.959,2.22334,-8.28164,4.23029,32.4415,-1.67471,-7.93531
58.965,2.17434,-8.44115,4.31984,31.9738,-1.77077,-7.76483
58.969,2.27074,-8.52125,4.41053,32.2264,-1.47377,-7.31967
58.975,2.49827,-8.40211,4.41079,32.1355,-0.949801,-7.09885
58.979,2.48549,-8.4967,4.57967,31.677,0.209994,-6.85096
58.984,2.47724,-8.41493,4.68543,31.5098,2.45057,-6.70278
58.99,2.32888,-8.20477,4.70035,31.6614,4.59112,-6.89467
58.994,2.28678,-8.25117,4.64617,31.4418,6.33038,-6.69193
59,2.29519,-8.0464,4.76747,31.249,7.93712,-6.31556
59.004,2.12787,-8.23236,4.84331,31.4047,9.11272,-6.49362
59.01,2.07747,-8.08048,4.67404,31.7619,10.4124,-6.15759
59.014,2.01512,-7.82734,4.49126,31.6322,10.0116,-5.79981
59.02,1.85761,-8.07021,4.50364,31.9398,9.51659,-5.40977
59.025,1.71068,-7.9919,4.62144,33.0753,8.55062,-4.45565
59.03,1.65292,-7.75376,4.65887,33.1179,7.17629,-3.38711
59.035,1.85049,-7.91363,4.64949,33.4526,5.97542,-2.42435
59.039,2.05264,-8.23353,4.57284,34.3584,4.83052,-1.76442
59.045,2.2691,-8.40004,4.30629,35.5015,3.93673,-1.16403
59.049,2.37498,-8.43481,4.17418,36.8449,2.83862,-0.0639259
59.055,2.41915,-8.17457,4.24476,38.3633,1.28273,1.3678
59.059,2.44856,-8.08485,4.47033,38.4879,0.0786179,2.16742
59.065,2.391,-8.15399,4.63187,39.3983,-0.0811706,2.87047
59.07,2.34037,-8.17818,4.96637,40.6068,0.390648,3.10847
59.074,2.19748,-8.18734,5.10939,40.9378,2.2032,2.87456
59.08,2.10144,-8.22025,4.95598,41.044,3.53421,2.77983
59.084,1.86341,-8.53815,5.04305,41.7212,4.78024,1.97434
59.09,1.85481,-8.64914,5.01692,43.0878,5.8487,2.04257
59.094,1.81863,-8.57981,5.00301,44.1787,6.26264,2.31887
59.1,1.80498,-8.34993,4.9802,44.9444,6.7509,2.48761
59.105,1.88368,-8.41509,4.95537,46.3884,7.00447,2.24377
59.11,2.08639,-8.34461,4.95094,48.1906,7.50939,1.92202
59.115,1.8855,-8.39476,4.99922,49.583,7.78302,1.74441
59.12,1.41601,-8.63292,5.22159,51.4594,8.14656,2.31163
59.125,1.36532,-8.67487,5.2698,53.6654,8.32619,3.41709
59.13,1.52806,-8.81834,5.25478,55.5648,7.37915,4.11765
59.135,1.81979,-8.71047,4.97721,57.5867,6.90166,5.22197
59.14,2.00757,-8.6372,4.74821,59.4492,6.45294,5.68633
59.146,2.08149,-8.64662,4.91484,61.2235,6.32961,5.98356
59.151,1.98389,-8.90375,5.28758,63.9271,6.51362,5.89995
59.156,1.70829,-9.35688,5.25371,66.0352,6.90954,5.96271
59.161,1.53026,-9.56086,5.13224,69.1998,6.82601,7.2773
59.166,1.51921,-9.81798,5.37376,72.4574,6.35385,8.38811
59.171,1.38172,-9.95982,5.45511,75.3902,6.097,9.79927
59.176,1.43444,-9.98025,5.38761,78.3115,5.30419,11.5326
59.181,1.42685,-10.2369,5.5566,81.1099,4.61519,12.463
59.187,1.35044,-10.2353,5.69083,83.9389,4.97175,13.6074
59.192,1.22993,-10.2067,5.8222,86.728,5.3109,14.8948
59.197,1.23693,-10.431,6.02371,89.5555,5.33908,16.0248
59.202,1.29449,-10.527,6.17727,92.2393,5.00956,17.8266
59.207,1.54277,-10.5778,6.15238,94.3925,5.16278,19.7996
59.212,1.73913,-10.6369,6.1999,96.7805,6.00513,21.297
59.217,2.02565,-10.5915,6.10949,99.1628,7.48405,22.7662
59.222,2.34424,-10.6737,6.10042,101.118,9.2647,23.8665
59.228,2.65202,-10.8788,6.17756,103.577,11.3574,25.0412
59.233,2.96671,-11.1843,6.33023,106.014,14.0464,26.0739
59.238,3.18201,-11.4975,6.40322,107.912,17.7193,27.2326
59.243,3.39732,-11.7917,6.41303,110.171,22.3004,28.3422
59.248,3.57032,-12.2136,6.20752,112.613,27.4031,29.4355
59.253,3.6359,-12.6706,6.12314,115.187,31.7024,30.9893
59.258,3.68106,-13.1642,6.12669,117.899,36.0421,32.6386
59.264,3.69508,-13.6457,6.24364,121.183,41.1522,33.9938
59.269,3.52273,-14.0691,6.02957,124.767,46.6489,35.2974
59.274,3.32688,-14.2607,5.50606,127.755,51.8362,36.7357
59.279,3.07356,-14.5209,4.764,131.823,55.8995,37.5573
59.284,2.57531,-14.9053,4.09801,137.555,57.5235,38.7276
59.289,2.0831,-15.3894,4.39036,143.884,58.3622,40.1506
59.294,1.79385,-16.0725,4.48613,149.799,59.0272,41.6979
59.299,1.58753,-17.1349,3.88227,155.247,60.6908,43.0281
59.305,1.54084,-17.9957,3.66014,159.642,63.7207,44.3619
59.309,1.35566,-18.4315,3.64744,164.489,67.9954,46.2331
59.315,1.36819,-18.7643,2.93177,169.711,71.7955,48.5423
59.32,1.44163,-19.3683,2.42085,174.71,75.3999,49.3848
59.324,1.55247,-19.919,2.21907,179.773,80.5629,49.8621
59.33,1.52093,-19.8113,1.91885,185.313,86.1761,50.6314
59.334,1.19658,-19.6649,1.35168,190.201,91.4162,51.1728
59.34,1.13321,-19.068,0.944754,194.044,94.7162,51.3176
59.344,1.37855,-17.9449,1.23375,197.104,92.2997,51.5115
59.35,1.3591,-16.6728,2.5831,201.676,86.0178,52.2554
59.354,1.72566,-15.4716,4.04772,208.014,77.3507,54.4245
59.359,2.71736,-15.1309,4.80303,213.181,68.4279,56.6008
59.365,3.59298,-14.6002,4.26141,215.673,56.8004,59.4207
59.369,4.33365,-13.6402,3.79373,217.131,41.3435,60.6794
59.375,4.66497,-12.4277,3.31429,218.496,20.6645,61.2497
59.379,4.82765,-11.1623,3.19079,216.171,-2.27416,61.4798
59.385,4.79079,-10.3353,2.77026,209.034,-25.8913,62.9428
59.389,4.10348,-10.1267,1.98478,198.506,-51.3429,68.0558
59.394,4.24653,-8.99391,1.92145,185.07,-77.8998,72.3015
59.4,4.35295,-7.87571,3.17265,168.753,-96.9713,69.1035
59.405,3.74987,-7.61573,4.05006,157.729,-102.749,65.1713
59.41,2.75042,-7.56721,3.82036,150.484,-96.5038,62.6887
59.414,1.72349,-7.01485,4.0838,144.121,-82.3285,59.6205
59.42,1.12297,-6.55645,4.53642,138.535,-67.4638,55.9938
59.424,0.350816,-6.48094,4.11376,131.914,-54.909,54.4539
59.43,-0.740902,-6.16329,3.66423,121.449,-44.8492,56.4087
59.434,-1.34523,-5.22009,3.27344,106.341,-40.8146,62.248
59.44,0.0558958,-4.25085,2.62509,88.8575,-44.7086,67.7876
59.445,2.62368,-4.52804,1.4449,73.1616,-57.1773,67.1295
59.449,3.19443,-5.72912,-0.608791,62.2372,-71.3115,63.3269
59.455,2.31578,-5.94605,-2.27204,51.3044,-77.7162,62.8075
59.459,2.58642,-4.97554,-2.70795,36.495,-77.6566,63.2712
59.465,3.07699,-4.29362,-2.31033,21.4778,-81.1216,60.3047
59.469,2.99556,-3.99614,-2.14145,8.89297,-85.0257,58.3012
59.475,2.91935,-3.62846,-2.25486,-3.40641,-84.2142,56.613
59.479,2.85661,-3.36703,-2.28138,-16.3589,-80.2926,53.9236
59.484,2.5871,-3.41011,-2.14303,-29.0252,-75.0862,51.9132
59.49,2.19797,-3.52887,-1.64662,-40.7579,-70.5932,52.368
59.494,2.01773,-3.3394,-0.95225,-50.7922,-67.7022,55.0283
59.5,2.00294,-3.10009,-0.316074,-60.2402,-65.5645,57.4738
59.504,2.04336,-2.85156,0.205796,-70.5651,-63.1345,59.0335
59.51,2.02387,-2.75392,0.682378,-81.5421,-60.17,60.3721
59.514,2.03023,-2.73783,1.16849,-92.6206,-56.4566,61.4612
59.52,2.23189,-2.91139,1.47131,-103.629,-52.3426,62.2017
59.525,2.23231,-3.17818,1.56566,-115.068,-49.5892,63.7508
59.53,2.33842,-3.32991,1.62376,-125.413,-46.4796,65.5961
59.535,2.42192,-3.55218,1.62813,-135.525,-43.6715,66.5317
59.539,2.36484,-3.74582,1.66426,-145.52,-41.9003,67.8165
59.545,2.38046,-3.89975,1.70096,-155.158,-40.9205,68.9999
59.549,2.39614,-4.0017,1.77059,-164.68,-40.5451,69.7257
59.555,2.45642,-4.01654,1.87961,-174.313,-39.3891,69.7341
59.559,2.5648,-4.22744,1.82484,-183.619,-37.2182,69.0721
59.565,2.44698,-4.5543,1.77877,-192.87,-36.6001,69.1475
59.57,2.34079,-4.60426,1.81259,-201.444,-36.2631,69.6119
59.574,2.30613,-4.75675,1.96422,-209.796,-35.6689,69.1013
59.58,2.3541,-4.93463,2.1174,-217.87,-34.6187,67.9948
59.584,2.45807,-5.1058,2.19297,-225.488,-33.4351,66.6407
59.59,2.50412,-5.32978,2.30117,-233.225,-32.2573,64.9144
59.594,2.55484,-5.60573,2.37571,-240.997,-30.6387,62.9719
59.6,2.66523,-5.90553,2.45989,-248.973,-28.7527,60.9005
59.604,2.80934,-6.21836,2.57437,-256.4,-27.1217,58.3781
59.609,2.9089,-6.57741,2.65037,-263.209,-25.0631,55.872
59.615,3.00257,-6.91793,2.75151,-269.9,-23.416,52.9051
59.619,3.1087,-7.23784,2.80752,-276.509,-22.1777,49.6778
59.625,3.11063,-7.56902,2.84743,-282.857,-21.806,46.5213
59.629,3.05142,-7.96136,2.86695,-289.192,-21.8576,43.4472
59.635,2.98013,-8.42791,2.9967,-295.226,-21.7157,40.3244
59.639,2.91368,-8.9358,3.09414,-300.941,-22.2471,37.2605
59.645,2.84653,-9.45635,3.1551,-305.988,-24.1225,34.5054
59.65,2.80576,-9.91441,3.231,-310.304,-26.4976,31.6849
59.655,2.82323,-10.4032,3.37052,-314.179,-29.8798,28.5001
59.66,2.84729,-10.9539,3.52068,-317.867,-33.8094,26.1343
59.664,2.91922,-11.5102,3.79388,-321.062,-38.4841,24.1537
59.67,3.12288,-12.105,4.19926,-323.504,-44.3902,22.2328
59.674,3.49967,-12.6745,4.72338,-325.902,-51.2437,20.1827
59.68,3.96337,-13.2198,5.43618,-328.168,-59.5112,17.7626
59.684,4.31504,-13.6965,6.52673,-330.677,-66.6844,14.9921
59.69,4.51007,-14.1619,7.92451,-332.899,-70.8526,11.7033
59.695,4.5508,-14.5706,9.42317,-334.247,-71.6374,8.52323
59.699,4.75723,-14.859,10.8028,-334.131,-71.1897,6.05786
59.705,5.09015,-15.1972,11.5187,-333.064,-71.8381,4.94789
59.709,5.33664,-15.5346,11.7956,-331.187,-75.5211,4.65786
59.715,5.60512,-15.8369,12.1852,-328.319,-83.5632,4.321
59.719,5.93283,-16.1474,12.8356,-325.22,-94.3413,4.26306
59.725,6.38763,-16.4111,13.7478,-322.38,-105.676,4.50702
59.729,6.68239,-16.7201,15.0391,-318.004,-114.956,3.52878
59.734,6.78867,-16.9652,16.3981,-312.154,-118.406,2.16005
59.74,6.95297,-17.2333,17.9463,-304.653,-116.026,0.373795
59.744,7.13457,-17.3988,19.4504,-295.411,-110.992,-1.30797
59.75,7.36842,-17.3072,21.0148,-282.801,-104.012,-5.56397
59.754,7.68656,-16.5173,22.4424,-268.24,-96.0389,-11.1871
59.76,8.16304,-14.7852,24.0309,-253.391,-86.642,-18.5354
59.764,8.69508,-12.6749,25.354,-238.111,-71.9321,-27.0445
59.77,8.64644,-10.6213,25.8564,-226.183,-51.4171,-33.5665
59.775,8.26898,-8.69651,26.5517,-214.458,-28.7421,-40.1681
59.78,7.75773,-7.35876,27.3469,-197.261,-5.89755,-47.3343
59.785,6.99121,-6.8511,27.7919,-176.577,14.0358,-53.9348
59.789,5.92071,-7.19248,28.0754,-154.786,28.4324,-60.641
59.795,4.37341,-6.4582,29.3442,-130.513,41.798,-63.239
59.799,2.70894,-6.14664,29.1738,-101.5,56.2425,-60.6603
59.805,1.56064,-6.68343,27.9933,-69.3616,67.0142,-56.6681
59.809,0.882315,-7.24227,26.939,-34.9698,69.1973,-50.5678
59.815,0.514723,-7.92824,25.3795,-0.101878,62.8741,-41.464
59.82,0.502737,-8.27362,23.2656,32.5082,50.9081,-29.4317
59.824,0.85958,-8.06821,21.3215,61.2748,34.6885,-16.7487
59.83,1.18002,-8.07393,19.7709,86.3091,15.4405,-5.50093
59.834,1.15878,-8.2212,18.8048,109.673,-3.30137,6.54108
59.84,1.16178,-8.18985,17.397,130.788,-18.8078,20.0693
59.844,1.94856,-9.46781,11.0773,145.51,-33.5723,33.3907
59.85,1.94532,-12.552,-0.535012,141.311,-49.9604,44.0799
59.854,1.34773,-15.0977,-11.0823,117.696,-63.9758,46.9386
59.859,-1.00422,-16.6767,-16.5414,92.7549,-65.8346,40.4644
59.865,-4.30166,-16.9864,-18.1481,79.965,-54.2322,34.9013
59.869,-5.78652,-14.2393,-16.1894,81.2047,-51.0429,32.1452
59.875,-6.33763,-10.6608,-9.5647,91.0305,-68.4075,27.1169
59.879,-7.09027,-9.86647,-0.743442,102.509,-88.701,21.9582
59.885,-6.5305,-11.5917,5.65934,118.203,-104.344,18.1758
59.889,-3.68829,-12.3161,9.03062,135.149,-125.137,16.8761
59.895,0.0417746,-11.6645,10.9998,146.922,-147.551,13.2078
59.9,2.00294,-11.1713,11.2202,150.126,-155.452,7.79898
59.905,3.03956,-10.9135,9.34934,143.908,-145.441,2.38913
59.91,2.52904,-11.4655,7.55369,135.729,-128.44,-3.62713
59.915,0.705671,-10.9031,5.90195,130.105,-111.079,-5.44985
59.92,-1.06476,-9.69669,5.6209,124.195,-98.4236,-9.61857
59.925,-1.10154,-8.63673,6.124,117.173,-91.7891,-10.6376
59.93,0.520717,-7.14958,6.45476,108.454,-91.5609,-12.3365
59.935,2.90656,-6.14668,6.70224,98.7851,-90.5146,-18.6281
59.94,4.41906,-6.35898,6.44997,90.436,-81.1548,-27.0812
59.945,4.78909,-7.07228,5.72221,84.8541,-67.8148,-34.7471
59.951,4.37814,-8.31335,6.02881,80.7368,-55.2907,-40.5157
59.956,3.71303,-9.24011,6.9917,80.392,-47.4453,-39.8386
59.961,3.27648,-9.54054,6.98471,83.6721,-45.4767,-34.1007
59.966,3.06028,-9.42722,5.76094,88.1241,-49.4885,-28.4523
59.971,2.78103,-8.99077,4.16035,89.3441,-52.7706,-26.1681
59.976,2.77484,-8.81563,3.17024,85.3067,-50.5581,-25.4871
59.981,2.44591,-8.55241,3.55826,78.4237,-39.9965,-21.8998
59.986,1.99257,-8.342,4.20973,74.1722,-27.4044,-18.8422
59.992,2.07781,-7.8021,4.96558,73.0552,-17.0321,-16.7182
59.997,2.54613,-7.5642,4.83074,73.2527,-12.9448,-15.7746
60.002,2.88459,-7.90831,3.86934,72.1697,-11.3365,-16.3754
60.007,2.34815,-8.35699,3.90433,68.0157,-6.75303,-17.2352
60.012,1.34596,-8.5595,4.44656,63.6624,-1.64075,-16.159
60.017,1.05352,-8.63803,4.33914,60.7348,-0.313732,-14.2869
60.022,0.832887,-8.55041,4.06962,57.7813,-1.47215,-13.428
60.028,0.752336,-8.43407,3.86103,54.8226,-4.5135,-14.6491
60.033,0.54118,-8.66766,3.58569,51.7051,-8.5744,-16.9241
60.038,0.489791,-9.08075,3.52922,49.4398,-11.9455,-18.4609
60.043,0.824289,-9.27265,3.46417,47.9588,-14.0832,-17.6756
60.048,1.13493,-9.09794,3.40646,47.1583,-14.8915,-17.2678
60.053,1.31334,-8.97711,3.43411,47.1089,-14.0217,-17.1757
60.058,1.52764,-8.75625,3.34904,47.561,-11.8285,-17.8243
60.063,2.03248,-8.59629,3.26191,47.8152,-8.58129,-18.9467
60.069,2.74932,-8.43387,3.7063,47.77,-4.24556,-20.8012
60.074,2.78775,-8.53283,3.76629,48.1763,2.71578,-24.1113
60.079,1.74105,-9.07958,2.39416,47.3846,7.0729,-25.5983
60.084,1.57994,-8.90629,1.84916,44.645,4.71339,-23.7583
60.089,2.09941,-8.28774,3.10148,42.8823,0.26989,-20.806
60.094,2.71486,-7.99072,4.4068,42.2448,-0.582251,-18.1184
60.099,2.73312,-7.91103,4.78133,40.2234,1.40896,-15.965
60.104,2.71834,-7.82309,4.68573,37.0592,7.19775,-15.1781
60.109,2.31885,-8.045,4.22442,34.7415,13.5561,-15.31
60.115,1.78292,-8.31105,3.78919,33.6314,16.4861,-15.2625
60.119,1.66162,-8.5934,3.78436,32.8254,15.6001,-14.8919
60.125,1.70693,-8.65881,4.17533,31.4331,13.6583,-13.9277
60.129,1.71462,-8.63517,4.44812,29.8671,14.1709,-14.0673
60.135,1.69655,-8.68679,4.55125,28.1513,17.0628,-15.1569
60.139,1.67572,-8.62822,4.41564,26.589,20.4215,-16.0427
60.145,1.94139,-8.47929,4.1583,24.7505,22.6044,-16.7319
60.15,2.00745,-8.55252,3.89185,23.4461,22.9591,-17.1825
60.155,2.2907,-8.44096,3.87605,23.1886,22.152,-16.8577
60.16,2.60836,-8.32208,3.8319,22.9888,21.7829,-16.9583
60.164,2.63778,-8.62375,3.7032,22.8075,23.2112,-16.913
60.17,2.6719,-8.56252,3.4197,22.6829,25.0312,-16.4917
60.174,2.62681,-8.45664,2.99896,23.7577,24.6385,-15.9274
60.18,2.40122,-8.5327,2.72652,24.7619,22.0881,-15.0466
60.184,2.21851,-8.42759,2.92754,25.3329,19.5222,-13.7676
60.19,2.12723,-8.27926,3.4741,26.6528,17.7847,-12.83
60.195,1.78344,-8.43994,3.88606,27.7436,16.3896,-12.1751
60.199,1.49531,-8.58835,3.86944,28.2246,15.8228,-11.4589
60.205,1.56455,-8.50717,3.59407,28.4872,14.6592,-10.5639
60.209,1.7412,-8.53727,3.44955,28.8417,12.9196,-9.47888
60.215,2.17137,-8.39963,3.41245,29.591,10.7922,-8.64366
60.219,2.19609,-8.30962,3.44871,30.4145,8.62177,-8.13156
60.225,2.08203,-8.33141,3.65341,30.9952,6.83683,-7.58814
60.229,2.01991,-8.38992,3.81702,31.807,6.27352,-6.72731
60.234,2.25217,-8.28958,3.87966,32.628,5.3964,-6.21466
60.24,2.14091,-8.39807,3.84771,32.9309,4.63066,-5.85891
60.244,2.03462,-8.60471,3.94212,33.0683,5.00517,-5.35827
60.25,2.23441,-8.38738,4.14283,33.8875,5.22838,-4.84231
60.254,2.22037,-8.2989,4.40111,33.8594,5.88785,-4.61357
60.26,1.98194,-8.30939,4.58478,33.7045,7.75702,-4.79367
60.264,1.8639,-8.41492,4.445,34.0691,9.70222,-5.21044
60.27,1.855,-8.5358,4.25815,34.4763,10.5125,-5.36286
60.275,2.14012,-8.54223,4.25302,34.8476,11.7691,-5.34074
60.28,2.302,-8.49211,4.10803,35.7898,13.796,-5.6126
60.285,2.10583,-8.5456,4.02844,36.8805,15.7371,-6.53069
60.289,1.75649,-8.59364,3.73923,38.2479,17.5664,-7.25505
60.295,1.43919,-8.58218,3.47028,40.7729,17.171,-7.30271
60.299,1.26906,-8.88585,3.36748,43.6352,14.2815,-6.38814
60.305,1.69976,-8.87377,3.5544,46.5694,10.2599,-5.01847
60.309,2.0187,-8.76779,4.08951,49.5941,7.14305,-3.85192
60.315,2.55532,-8.63744,4.14661,51.902,6.23991,-2.902
60.32,2.8248,-8.80345,4.00528,53.7607,7.13652,-2.84775
60.324,2.96252,-8.99071,3.79397,56.2739,8.34831,-2.54666
60.33,2.84231,-8.97401,3.832,59.1104,8.77704,-1.75599
60.334,2.75954,-9.03046,3.82862,62.4475,7.95936,-0.534911
60.34,2.7034,-9.11927,4.09443,65.5673,7.44666,0.480469
60.344,2.55012,-8.9275,4.20386,67.9767,8.31812,1.31019
60.35,2.32137,-9.06904,4.22712,70.5642,9.487,1.28823
60.354,1.94404,-9.24659,4.41916,74.0203,10.0093,1.69001
60.359,1.78702,-9.28647,4.75485,78.2358,9.46698,3.00712
60.365,1.73199,-9.52362,4.70855,82.5461,8.15009,4.12615
60.369,1.89809,-9.75621,4.71428,85.5694,7.94261,4.91735
60.375,2.08813,-9.82463,4.52996,88.3553,8.43783,4.97279
60.379,1.89452,-10.0912,4.27389,92.4653,8.03961,5.60094
60.385,1.9586,-10.2871,4.75437,97.7322,6.46512,7.31975
60.389,2.06053,-10.6765,5.03579,102.589,5.09178,8.37579
60.394,1.31573,-11.1849,4.97476,105.828,5.48664,9.37887
60.4,1.2492,-10.9483,4.70095,110.147,6.09354,11.3855
60.405,1.51868,-11.1079,5.00391,115.263,4.13558,13.3285
60.41,1.65051,-11.607,5.44793,120.284,1.90946,15.4461
60.414,1.69013,-11.7211,5.61064,124.575,1.41314,17.2588
60.42,1.86418,-11.654,5.70414,128.026,2.52005,18.043
60.424,1.97646,-11.6569,5.67786,130.975,4.02357,18.3708
60.43,1.96759,-11.7821,5.71325,134.116,5.1617,18.7334
60.434,2.07407,-12.073,5.67682,137.616,5.59179,19.4227
60.44,2.29498,-12.3817,5.85002,141.937,6.23954,20.2373
60.445,2.54608,-12.7559,6.09314,145.899,8.30958,20.734
60.449,2.87416,-13.212,6.20466,149.684,11.7448,20.9052
60.455,3.27514,-13.9419,5.99651,153.265,15.7759,20.9619
60.459,3.8008,-14.7589,5.8105,157.054,19.7268,20.7538
60.465,4.41931,-15.3687,5.88611,160.715,24.5071,20.5333
60.469,5.32754,-15.8875,5.98813,164.135,31.3353,19.1669
60.475,6.11156,-16.3877,5.94334,166.817,40.686,16.2349
60.479,6.5199,-17.0324,5.65772,169.032,52.7499,11.4982
60.484,6.87799,-17.6102,4.6631,171.967,66.927,5.83892
60.49,7.09318,-17.6064,3.59731,176.734,80.9439,-0.761793
60.494,6.95957,-17.6262,3.73754,182.337,91.1834,-7.19902
60.5,6.69619,-18.503,3.84147,185.669,99.0127,-12.7654
60.504,6.34657,-19.7753,3.53386,184.441,109.328,-18.649
60.51,5.90922,-20.4679,3.00873,179.996,126.503,-25.6869
60.514,5.42196,-20.246,2.99399,174.709,148.63,-34.5449
60.519,5.49126,-19.0152,3.02013,172.818,165.889,-40.6268
60.525,4.99291,-17.7071,2.3763,174.877,175.387,-41.1616
60.529,4.7583,-16.0232,1.33869,180.305,189.111,-41.4148
60.535,4.59544,-14.0393,1.98055,187.404,196.047,-41.7434
60.539,4.25878,-12.2671,3.22677,192.724,187.158,-38.5562
60.545,4.03707,-10.9298,5.06116,196.998,168.667,-33.0542
60.549,4.0852,-10.5029,6.71473,198.987,145.863,-26.006
60.555,3.81616,-10.6346,7.33091,196.415,121.01,-16.493
60.559,3.96187,-10.2627,7.97279,190.365,101.043,-9.88076
60.565,4.24516,-9.4493,8.0936,182.511,87.6808,-6.50927
60.57,4.13633,-8.66482,7.89924,173.361,79.7869,-5.0721
60.574,3.62528,-8.44856,7.28442,164.416,73.5385,-4.70614
60.58,3.13113,-8.0873,6.52845,156.358,68.5394,-4.98262
60.584,2.11164,-7.69741,5.60094,147.257,66.4906,-5.16362
60.59,0.86492,-7.23419,4.99514,137.33,65.6233,-3.47865
60.594,0.024556,-6.56247,4.54638,129.059,62.4743,0.135519
60.6,-1.1884,-6.08246,3.93976,120.91,57.9338,4.943
60.604,-2.64027,-6.06375,3.66617,111.206,52.3988,10.8621
60.609,-2.52666,-5.42138,3.84762,102.64,40.1311,18.0751
60.615,-1.73615,-4.11185,3.86974,95.9412,21.6368,25.3111
60.619,-1.19584,-3.77069,3.09713,89.0076,-1.20743,32.16
60.625,-0.821423,-3.98596,2.34131,80.1712,-24.6165,37.8628
60.629,-0.649675,-3.877,2.07133,71.1339,-45.1049,42.6935
60.635,-0.388867,-3.14261,2.39289,64.3438,-61.0173,46.9366
60.639,-0.0571144,-2.16534,2.83331,59.4267,-73.1724,50.1541
60.644,-0.051129,-1.40049,3.13663,54.551,-83.3135,52.4564
60.65,-0.268935,-0.736669,3.43272,49.2695,-92.2687,54.1391
60.654,-0.522417,-0.0357312,4.00341,43.5645,-100.458,55.4841
60.66,-0.557445,0.487673,4.70125,38.2149,-107.103,56.7521
60.664,-0.577339,0.884991,5.36957,32.3401,-111.759,58.2461
60.67,-0.784125,1.56126,6.21394,26.4825,-113.135,59.4927
60.674,-0.81661,2.31129,7.18537,20.9658,-110.825,59.3828
60.68,-0.744818,2.88594,8.04391,14.8249,-106.257,58.0455
60.684,-0.858878,3.53479,8.95576,9.10829,-99.4095,56.6873
60.69,-0.837181,4.55182,9.6192,4.59061,-90.2488,54.7207
60.695,-0.786993,5.38555,10.2764,-0.134948,-79.1904,50.6098
60.699,-0.589071,6.16061,10.9165,-4.83699,-68.1078,45.4404
60.705,-0.463646,6.71959,11.6184,-8.63866,-58.8639,39.6728
60.709,-0.581723,6.93362,12.2125,-9.97502,-51.1621,34.665
60.715,-0.791969,7.36302,13.0626,-9.49757,-43.6686,33.4449
60.72,-0.711682,8.91947,13.9266,-11.364,-36.3954,31.0238
60.725,-1.04883,9.86494,14.7777,-14.357,-27.3193,24.0809
60.73,-1.62902,9.87775,15.4208,-15.5237,-17.5313,17.7857
60.735,-2.16272,9.73344,15.7635,-14.5265,-9.58143,15.9326
60.74,-2.48519,9.87606,15.8749,-11.8079,-3.73129,15.2151
60.745,-2.98514,9.74523,16.0896,-8.54022,-0.758088,15.6285
60.75,-3.01318,9.38139,16.1866,-5.30448,-1.54131,16.5912
60.756,-2.74257,8.9005,16.5878,-1.77187,-1.26439,18.7033
60.761,-2.65929,9.35035,16.9805,3.48427,0.384312,20.395
60.766,-2.59162,9.17773,17.0724,8.47569,0.0628581,20.7312
60.771,-2.55227,8.91508,17.2313,13.1281,-2.5237,22.0513
60.776,-2.57092,8.80945,17.2663,18.6254,-5.92135,24.4458
60.781,-2.48532,8.79027,17.0651,24.8262,-8.68425,27.8168
60.786,-2.32657,8.95447,17.0598,30.675,-11.2403,30.9065
60.792,-2.20288,9.1286,17.0154,35.737,-13.835,32.8868
60.797,-2.03395,9.2571,16.9493,40.9579,-15.0723,33.9046
60.802,-1.91978,9.21103,16.8713,46.4531,-14.8887,34.3125
60.807,-1.77373,9.18429,16.6532,52.083,-13.1782,34.8138
60.812,-1.50833,9.19578,16.4241,57.6844,-9.28115,34.3492
60.817,-1.40703,9.09342,16.2293,62.8563,-3.40862,33.1201
60.822,-1.21852,9.00343,16.1298,67.3002,3.66669,31.1836
60.827,-0.930675,8.87707,15.7919,72.2339,10.4349,29.2158
60.833,-0.738471,8.5303,15.1104,76.9561,16.1571,27.0617
60.838,-0.55089,8.20597,14.3036,80.1508,21.3665,24.6018
60.843,-0.428755,7.88595,13.6077,82.3164,26.4905,21.8707
60.848,-0.36886,7.62028,12.9175,84.4672,30.9953,19.0339
60.853,-0.365057,7.22548,12.1122,86.4581,33.7197,15.9358
60.858,-0.355256,6.74429,11.4084,87.9725,35.2331,13.3388
60.863,-0.288694,6.31898,10.8866,88.3827,36.1826,10.782
60.868,-0.246518,6.07433,10.7153,87.7786,36.8107,7.64292
60.873,-0.319246,5.71005,10.5832,86.604,37.2882,3.59731
60.879,-0.339516,4.94925,10.2498,86.0592,36.3003,0.824861
60.884,-0.245655,4.37436,9.74608,85.6485,33.2211,-1.09714
60.889,-0.280889,3.70192,9.34773,84.4943,29.2504,-3.04845
60.894,-0.290382,3.01884,9.14946,82.903,25.5149,-4.6241
60.899,-0.149713,2.48565,9.11145,81.2931,21.5516,-5.92004
60.904,-0.00251876,1.90567,9.08388,79.5109,17.6081,-7.13151
60.909,0.0713788,1.21319,9.05078,77.7625,15.6063,-8.9044
60.914,0.129281,0.388232,8.97462,75.9996,14.9354,-10.7536
60.92,0.320297,-0.292452,8.88362,73.882,14.8107,-12.0882
60.924,0.547827,-1.04335,8.7452,71.1091,15.2783,-13.6636
60.93,0.853958,-2.00838,8.54742,67.6462,17.1127,-15.2908
60.934,1.20529,-2.94442,8.45569,63.0697,20.2241,-17.7238
60.94,1.55547,-3.78071,8.77028,58.7378,24.1337,-19.7572
60.945,2.03058,-4.54036,9.11062,55.306,26.6797,-21.5755
60.949,2.50231,-5.21429,9.30308,52.3005,27.4063,-23.8612
60.955,2.83292,-5.92871,9.45946,50.0568,28.1574,-26.0098
60.959,3.11019,-6.58336,9.67979,48.4732,29.3015,-27.8745
60.965,3.44452,-6.99938,9.83266,47.4695,29.9483,-29.586
60.969,3.71926,-7.3208,9.94572,46.4629,30.8921,-32.1216
60.975,3.89289,-7.54336,9.90569,44.8683,32.1201,-34.8647
60.979,4.07635,-7.68853,9.86759,43.0163,33.2552,-37.2741
60.984,3.99683,-7.72559,9.94926,41.1026,34.2027,-39.2806
60.99,3.80279,-7.67068,10.139,39.3646,35.2139,-40.9441
60.994,3.63511,-7.55667,10.2165,38.2285,35.8979,-42.714
61,3.44285,-7.60017,10.1944,36.9511,35.7437,-45.0162
61.004,3.30518,-7.65895,10.1489,34.9237,35.5275,-47.3786
61.01,3.0789,-7.70704,10.0309,32.4119,36.4107,-49.6639
61.014,2.76372,-7.71377,9.87069,29.2166,38.447,-50.7492
61.019,2.48492,-7.76027,9.66262,25.9617,40.9061,-50.6015
61.025,2.29815,-7.93588,9.19878,22.329,42.6987,-49.7027
61.03,2.09538,-8.28456,8.50091,18.5229,42.895,-48.3434
61.035,2.01384,-8.65702,7.80328,14.5191,41.0487,-46.689
61.039,2.03485,-9.06207,7.33261,10.8375,37.5175,-44.1604
61.045,2.11109,-9.29417,6.97199,7.5171,32.5119,-40.9032
61.049,2.14364,-9.34036,6.80373,4.88672,26.9949,-37.1775
61.055,2.10323,-9.30964,6.63475,3.06721,21.9203,-33.797
61.059,2.04888,-9.18979,6.34393,1.65503,16.9416,-30.5778
61.065,2.06403,-9.00874,5.96959,-0.0952345,11.4124,-27.9627
61.07,2.01819,-8.78493,5.64071,-2.37466,7.50704,-26.3649
61.074,1.82316,-8.63573,5.2223,-5.26838,5.96833,-25.119
61.08,1.59186,-8.54402,4.81949,-8.42034,5.38512,-23.1255
61.084,1.35817,-8.54209,4.49501,-12.0656,4.07206,-20.7333
61.09,0.885217,-8.58134,4.22147,-15.939,2.09559,-17.4175
61.094,0.709116,-8.45861,3.95842,-19.9779,-0.549648,-13.5783
61.1,0.622491,-8.32665,3.6785,-24.8064,-3.74924,-10.4695
61.104,0.525562,-8.13646,3.55406,-30.4981,-6.93883,-7.75622
61.109,0.437218,-7.99601,3.54859,-36.7965,-8.5449,-6.16511
61.115,0.587713,-7.92489,3.39275,-43.4142,-9.37917,-5.84524
61.119,0.622085,-8.05516,3.17185,-49.9732,-11.4954,-4.75346
61.125,0.525431,-8.32465,2.78913,-56.9547,-13.1376,-2.78417
61.129,0.481051,-8.68781,2.3033,-64.078,-14.4287,-0.525233
61.135,0.369727,-9.16481,1.82173,-70.9926,-16.9988,2.67795
61.139,0.218266,-9.56391,1.39569,-78.0595,-20.6611,6.48701
61.144,0.138784,-9.83158,1.03025,-85.402,-24.9779,10.5041
61.15,0.106908,-9.96167,0.62943,-93.0817,-29.4224,15.141
61.154,0.0635386,-9.98109,0.34518,-100.78,-33.5212,19.6583
61.16,-0.101075,-10.0704,0.186212,-107.981,-37.5267,23.8053
61.164,-0.16816,-10.2211,0.15734,-114.617,-41.5483,28.0031
61.17,-0.285354,-10.4158,0.244045,-121.498,-46.2736,33.0104
61.174,-0.340646,-10.4958,0.388551,-128.156,-51.4192,38.2632
61.18,-0.244029,-10.476,0.577319,-134.976,-57.1037,43.666
61.184,-0.143294,-10.4917,0.824237,-141.798,-62.7307,49.0488
61.19,-0.0581176,-10.5261,1.25462,-148.894,-67.782,54.2695
61.195,0.199333,-10.532,1.60771,-156.157,-72.9232,60.0052
61.199,0.448232,-10.6081,1.93557,-163.115,-78.5074,65.7205
61.205,0.70512,-10.7131,2.25193,-169.599,-84.439,71.2905
61.209,1.11792,-10.8762,2.47792,-175.603,-90.8386,76.3645
61.215,1.42129,-11.0604,2.74851,-181.532,-96.7602,81.1272
61.219,1.65539,-11.2949,2.91396,-187.64,-101.781,85.5328
61.225,1.87116,-11.5721,2.95873,-193.598,-106.277,90.1223
61.229,2.03405,-11.7536,3.03927,-198.993,-110.788,94.7627
61.234,2.10195,-11.9605,3.16379,-203.802,-115.339,99.197
61.24,2.2146,-12.0731,3.2019,-208.25,-120.219,103.562
61.244,2.36279,-12.2268,3.21837,-211.955,-125.582,107.527
61.25,2.47157,-12.3537,3.42126,-215.271,-131.219,111.204
61.254,2.61688,-12.4914,3.70457,-218.545,-135.993,114.372
61.26,2.82886,-12.5967,4.01246,-221.811,-139.788,117.192
61.264,3.02645,-12.6378,4.25875,-224.57,-142.944,120.102
61.269,4.05447,-12.2953,4.80772,-225.362,-147.448,122.536
61.275,4.98685,-11.9077,6.41267,-224.511,-149.945,123.225
61.279,3.00555,-12.2977,9.7109,-227.911,-137.796,123.366
61.285,-0.135439,-13.1281,13.1514,-232.142,-105.127,125.202
61.289,-2.61369,-13.2536,11.5808,-230.232,-79.4311,135.636
61.295,-1.71438,-13.7093,6.58014,-226.911,-90.353,144.295
61.299,0.571124,-12.5291,5.69707,-231.751,-127.022,144.861
61.305,2.27756,-11.7554,5.90306,-238.303,-148.424,140.48
61.309,3.76199,-12.6547,5.07689,-239.469,-154.11,135.998
61.315,4.33015,-13.8062,4.37143,-237.762,-161.731,135.754
61.32,4.48291,-14.1437,3.39997,-236.539,-174.643,139.549
61.325,4.43819,-14.0024,3.33112,-235.448,-189.187,144.072
61.33,4.82767,-13.9712,4.54927,-234.287,-203.61,147.43
61.335,5.77885,-13.7094,5.83143,-232.018,-219.485,150.348
61.34,6.79946,-13.1797,6.55651,-228.609,-232.53,152.288
61.345,7.34109,-12.1394,8.46726,-229.386,-236.261,150.784
61.35,7.65134,-11.3668,10.2871,-230.912,-228.157,146.97
61.355,8.62949,-10.7485,11.2748,-229.818,-216.17,142.562
61.361,9.59323,-9.8435,11.347,-228.993,-206.721,137.588
61.366,10.4367,-9.02077,10.7891,-230.243,-200.049,130.708
61.371,11.3876,-8.66729,11.4999,-233.111,-193.029,121.727
61.376,11.9603,-8.41651,12.017,-233.68,-185.926,112.432
61.381,12.5891,-7.70361,12.5264,-234.291,-178.553,104.487
61.386,13.1172,-7.54172,13.7337,-231.779,-169.41,95.1793
61.391,13.1532,-7.42737,15.1455,-227.156,-156.744,86.0044
61.396,12.9587,-6.95799,16.0356,-224.172,-137.911,77.9049
61.402,12.6546,-6.64603,16.4283,-222.406,-119.324,69.0969
61.407,12.4478,-6.63745,16.8827,-217.935,-105.79,58.5263
61.412,12.1748,-6.6495,17.9191,-211.488,-94.1592,47.9363
61.417,11.8424,-6.67647,19.2008,-205.692,-80.9971,37.9499
61.422,11.4179,-6.70794,20.5135,-199.49,-65.3141,28.6448
61.427,10.9983,-6.51529,21.6076,-192.5,-47.7836,20.0705
61.432,10.5928,-6.1917,22.6378,-185.182,-29.5296,12.0406
61.438,10.0975,-6.05385,23.2033,-175.768,-11.885,3.97314
61.443,9.59474,-5.89197,23.3404,-164.246,2.15145,-3.26867
61.448,9.23936,-5.48437,23.2399,-151.52,10.1064,-9.58764
61.453,8.45469,-10.1129,24.0681,-135.614,13.8495,-19.8048
61.458,8.67449,-10.753,26.7045,-105.504,23.3063,-35.5764
61.463,8.25118,-2.06967,29.6657,-90.8099,26.1683,-31.4972
61.468,7.00925,-2.69001,27.5537,-69.8235,20.9784,-22.7123
61.473,6.47014,-5.28277,24.9087,-47.5223,5.88935,-16.7723
61.478,7.07617,-5.017,25.2,-30.8677,-2.46505,-17.3935
61.484,6.96117,-3.67773,26.0832,-13.4556,-8.30287,-19.0859
61.489,5.60364,-3.46332,25.7004,6.28424,-17.9649,-18.9284
61.494,4.82168,-3.23456,24.1367,23.1871,-28.1581,-15.928
61.499,3.98571,-2.98483,22.5688,37.9095,-41.2333,-12.6883
61.504,2.1251,-3.78833,21.0673,51.3658,-51.2662,-9.61313
61.509,-0.203233,-6.26239,16.6709,64.9201,-58.4746,-3.43202
61.514,-3.53156,-10.2148,6.2459,69.884,-67.4056,10.3547
61.519,-5.58768,-13.8543,-5.45837,59.2108,-78.1884,24.8187
61.525,-6.23576,-16.5906,-12.0552,41.8123,-93.4923,31.5708
61.53,-4.18818,-17.4675,-12.1126,29.2255,-111.912,30.9763
61.535,-0.545307,-15.0635,-4.85242,26.7922,-122.545,23.794
61.539,1.41963,-11.8556,4.66245,34.4917,-112.244,12.8957
61.545,1.86661,-9.02841,13.434,42.8431,-82.7746,3.29042
61.55,0.355028,-8.21949,11.4475,51.7725,-44.3608,-10.0911
61.554,0.551929,-10.1663,9.79151,47.9524,-5.28957,-23.6643
61.559,1.33712,-9.20444,7.64817,43.5931,5.10843,-16.0858
61.565,1.96951,-8.60092,5.38792,39.1957,4.98806,-17.7949
61.569,2.25422,-8.41709,4.49425,35.959,-0.831822,-22.8958
61.574,1.64756,-8.33204,3.6324,36.2761,-12.9622,-26.2383
61.58,0.793687,-8.29016,3.21353,35.3796,-25.5996,-28.2358
61.585,0.0996704,-7.83607,3.81534,31.143,-31.0831,-29.7719
61.589,-0.381057,-7.18195,4.99151,25.9262,-23.4799,-31.081
61.594,-0.126098,-7.03195,5.86981,22.3993,-7.44774,-33.3407
61.6,1.03526,-7.36233,5.7281,19.9654,6.80721,-37.3614
61.605,2.09288,-7.9332,5.53838,18.9098,13.9071,-41.3486
61.609,3.03909,-8.3624,5.54134,19.1156,17.3562,-43.1892
61.615,3.95187,-8.51322,5.10692,20.0851,18.8182,-42.4803
61.62,4.34633,-8.5744,4.10362,22.0638,18.8558,-40.4397
61.624,3.98807,-8.50196,2.71058,24.0185,19.4433,-37.7399
61.629,3.49148,-8.16701,2.12855,25.3441,21.0638,-35.5062
61.635,3.03798,-7.83298,2.84409,25.6748,24.921,-34.5015
61.64,2.54462,-7.75119,3.83461,26.1366,29.3662,-34.248
61.644,2.01003,-8.06209,4.70857,27.2722,29.97,-32.8683
61.65,1.65352,-8.44797,5.1611,28.8049,28.5119,-31.3426
61.655,1.52186,-8.72574,4.42219,29.2613,27.2594,-29.9875
61.659,1.66817,-8.79928,3.15812,27.6467,23.6412,-30.0969
61.664,1.88303,-8.50761,2.41142,25.503,18.4092,-30.8628
61.67,1.8592,-8.39176,2.57424,26.3662,14.5456,-31.3273
61.675,1.7159,-8.51278,3.15727,29.9089,12.9856,-30.7904
61.679,1.65485,-8.90059,3.70417,33.799,12.3766,-29.9888
61.684,1.81899,-9.2651,3.6953,36.1749,10.8313,-29.4107
61.69,1.94819,-9.34291,3.30282,36.671,7.78706,-27.8201
61.694,2.03415,-9.1616,3.13833,36.7183,3.34725,-25.1442
61.699,2.04445,-8.93284,3.24059,37.1855,-1.46644,-21.7457
61.705,2.11728,-8.71903,3.6569,37.4732,-6.66652,-18.3141
61.71,2.3371,-8.59868,3.95561,37.3031,-11.0407,-15.0397
61.714,2.46734,-8.52408,4.04801,35.9526,-14.2622,-11.7976
61.719,2.51411,-8.40648,4.10194,34.1847,-16.1191,-8.84426
61.725,2.46555,-8.26517,4.35703,33.3959,-17.3027,-6.34334
61.73,2.40885,-8.30799,4.87358,32.4706,-17.4841,-3.91472
61.734,2.47355,-8.37029,4.94737,31.0276,-15.6042,-1.61365
61.74,2.44005,-8.42888,4.88595,29.6559,-11.9004,-0.0342514
61.745,2.32015,-8.48018,4.82993,28.9309,-7.85533,0.933607
61.749,2.20542,-8.46931,4.77679,28.1145,-4.42346,0.889691
61.754,2.00637,-8.41322,4.83853,27.0999,-1.74662,0.750645
61.76,1.87327,-8.36718,4.91946,26.0133,0.25321,0.535121
61.765,1.80203,-8.56053,4.76772,25.2058,1.56221,0.521638
61.769,1.80032,-8.72995,4.46863,24.1579,2.67771,0.547768
61.775,1.96084,-8.80619,4.28128,23.2453,3.55744,0.244331
61.78,2.07623,-8.64729,4.34097,22.8635,4.09535,0.177396
61.784,2.04104,-8.46513,4.27159,23.5967,4.49738,-0.272519
61.789,1.98406,-8.43829,4.15269,24.3934,4.12758,-0.720588
61.795,2.05526,-8.54298,4.01467,25.3245,3.47557,-0.696765
61.8,2.06925,-8.58342,4.04225,26.3865,3.17233,-0.620046
61.804,1.93833,-8.42095,4.10731,27.1972,2.66103,-0.169887
61.809,1.73719,-8.22022,4.22084,27.9491,2.47798,0.303856
61.815,1.61474,-8.13329,4.40373,29.0041,1.7686,0.329147
61.819,1.57415,-8.19574,4.39095,30.1572,0.368019,0.58413
61.824,1.81021,-8.21562,4.41344,30.851,-0.535093,0.667475
61.83,1.94331,-8.21334,4.42833,31.7425,-0.109798,0.446866
61.835,1.86204,-8.27812,4.37122,32.7264,0.834241,0.0286652
61.839,1.85411,-8.29088,4.54119,34.0428,2.25109,0.17744
61.844,2.01869,-8.37004,4.88809,35.0952,4.40468,0.62889
61.85,2.12631,-8.55965,4.73352,35.6262,7.44159,0.912388
61.855,2.23077,-8.59652,4.24306,36.7753,10.2437,0.792595
61.859,2.22048,-8.55238,4.04935,37.9286,11.3665,0.677784
61.865,1.98548,-8.45028,4.16185,39.3554,11.4814,1.53217
61.87,1.88728,-8.58991,4.59577,41.2721,10.5746,2.34658
61.874,1.89624,-8.8319,4.9367,43.1694,10.3475,3.4467
61.879,2.08859,-8.76593,4.83278,43.8576,10.6969,4.72289
61.885,2.25035,-8.71204,4.84559,44.5095,11.591,4.96139
61.89,2.25488,-8.58401,4.68667,45.7061,12.8146,5.13135
61.894,2.15137,-8.42218,4.80426,46.6408,14.055,5.20442
61.9,1.64149,-8.44703,5.01887,47.9701,15.4809,4.62866
61.905,0.99427,-8.16835,4.78251,49.8716,16.1963,4.15184
61.909,0.559752,-8.41567,4.88473,51.4224,14.9236,3.7779
61.914,0.519179,-8.90515,5.31051,53.0299,12.9902,5.78747
61.92,0.794398,-8.93175,4.95471,55.3717,11.6464,6.95364
61.925,1.14883,-8.98432,4.67306,57.5146,9.74046,8.0219
61.929,1.46262,-9.18216,4.72617,59.2723,8.19065,9.80753
61.934,1.70137,-9.2816,4.79694,61.7006,7.04834,11.5432
61.94,1.80568,-9.51748,4.90563,64.3152,6.55754,12.8892
61.944,1.86699,-9.64374,4.95639,66.8166,6.13867,13.9
61.949,1.77364,-9.7079,4.9471,68.6297,4.8916,15.243
61.955,1.92672,-9.96331,5.1528,70.2545,2.38274,16.1456
61.96,2.16366,-10.0691,5.52894,72.9918,1.88659,17.0824
61.964,2.17591,-10.1044,5.70383,74.7772,3.48846,17.8794
61.969,2.00474,-9.98649,5.63165,75.9251,6.10316,18.1531
61.975,1.80871,-9.96246,5.77614,76.9854,8.70931,17.8545
61.98,1.41384,-9.9309,5.66586,78.4788,10.3771,17.953
61.984,1.10122,-9.91201,5.4911,80.5155,9.66364,18.7462
61.99,1.08752,-9.83856,5.33887,82.5536,8.32475,20.3492
61.995,1.10828,-9.83359,5.57007,84.5489,7.16701,22.4833
61.999,1.10174,-9.84756,5.97125,86.3604,7.16122,24.2375
62.004,1.14657,-9.90692,6.04192,87.8702,8.1086,25.2425
62.01,1.23746,-10.1295,5.80915,89.2963,8.41639,26.0941
62.015,1.46261,-10.3607,5.47176,91.1526,7.27011,27.722
62.019,1.95752,-10.4565,5.1892,93.1557,5.37176,30.7055
62.025,2.53487,-10.6119,5.38228,95.405,3.98403,32.8823
62.03,2.8566,-10.5211,5.49119,97.4491,4.67294,34.5517
62.034,3.22018,-10.8829,5.29705,99.7502,6.74242,35.4972
62.039,3.25372,-11.3587,5.38335,103.026,7.82824,37.5582
62.045,3.22128,-11.3959,5.86851,105.549,11.4331,39.1693
62.05,3.11099,-11.8967,6.15489,107.729,16.9331,39.7695
62.054,2.97972,-12.4835,6.04889,110.317,23.1913,40.6281
62.059,2.89044,-13.0044,5.77454,113.438,28.8627,42.1364
62.065,2.70367,-13.4418,5.43416,115.957,34.0949,44.1532
62.069,2.53598,-13.7708,4.93445,119.201,38.0928,46.0389
62.074,2.45102,-14.1153,4.81776,122.878,40.6775,47.5086
62.08,2.05735,-14.3342,4.77539,127.162,44.1076,48.5215
62.085,1.47745,-14.6595,4.33703,131.906,47.9939,48.9105
62.089,0.756177,-14.9494,3.67149,137.624,50.2343,49.9957
62.094,0.210053,-15.2127,3.01097,143.278,51.057,51.8539
62.1,-0.345606,-15.7491,2.63337,150.412,50.8742,54.497
62.105,-0.505895,-16.3682,2.7177,157.272,48.8383,58.5569
62.109,-0.599743,-17.0812,2.88677,164.301,47.6953,62.9293
62.115,-0.226275,-17.7644,2.24537,169.433,46.7332,67.0031
62.12,0.0995555,-18.6914,2.27236,174.536,47.0502,70.1049
62.125,0.356094,-18.6071,2.04956,179.408,47.8619,74.1138
62.13,0.63599,-19.3591,2.03188,184.391,49.8931,75.6456
62.135,0.815478,-19.2325,1.40031,189.136,51.5382,77.2206
62.14,1.41652,-19.3691,1.52667,192.462,50.3295,76.7506
62.145,1.81062,-18.2116,2.15562,198.615,43.2004,78.5345
62.15,2.57972,-17.7142,2.91498,206.108,29.8893,80.9285
62.155,3.14227,-17.9501,3.20042,213.855,14.3,84.5489
62.161,3.36046,-16.8744,2.93029,218.409,-3.36527,91.0887
62.166,3.52856,-16.2059,3.11989,219.902,-18.5526,94.9934
62.171,3.4824,-15.2609,3.11587,219.152,-31.2876,99.6142
62.176,3.47204,-13.6659,2.78397,217.757,-42.7998,104.882
62.181,3.38061,-13.0029,2.35278,216.523,-56.0049,109.154
62.186,3.60561,-11.7539,1.9074,214.589,-72.2941,115.278
62.191,4.24761,-10.7857,1.52363,208.401,-92.1524,120.172
62.196,4.14484,-10.2182,1.30249,198.307,-113.688,124.945
62.202,4.72225,-9.33805,1.12912,184.899,-139.857,129.376
62.207,4.9678,-8.1321,2.43592,169.916,-158.673,130.071
62.212,4.18069,-7.22074,4.84574,162.283,-162.958,126.926
62.217,3.51441,-7.11257,5.71975,160.123,-160.949,123.731
62.222,2.93945,-7.03258,5.76343,156.615,-156.07,123.061
62.227,2.14973,-7.01775,5.44702,148.966,-147.749,124.026
62.232,1.63071,-7.0438,4.20567,137.606,-137.681,128.207
62.237,0.512085,-6.63181,2.94664,119.096,-129.639,138.509
62.242,0.176522,-6.0344,2.02653,94.0839,-124.991,151.064
62.248,3.24113,-5.70043,0.744478,74.1856,-128.025,155.358
62.253,6.11184,-5.93291,-1.52931,61.1164,-138.538,151.712
62.258,5.91262,-6.39764,-3.66496,49.8673,-146.554,147.887
62.263,5.50988,-6.1244,-3.82364,35.1387,-143.453,143.665
62.268,4.94253,-5.73743,-3.18653,19.5699,-132.517,140.918
62.273,4.54822,-5.54442,-2.81506,6.08613,-118.502,140.951
62.278,4.56024,-4.89851,-2.88634,-5.32519,-105.27,143.628
62.283,4.67639,-4.12482,-3.16239,-16.6654,-94.3076,145.527
62.289,4.68368,-3.91229,-3.23871,-28.7533,-84.7433,145.745
62.294,4.81583,-3.90402,-2.91268,-40.5451,-76.2093,146.676
62.299,5.01256,-3.73746,-2.44715,-51.4696,-69.4625,149.219
62.304,5.12883,-3.49286,-1.90462,-62.1735,-64.7472,152.775
62.309,5.19155,-3.2179,-1.23638,-74.3731,-60.0264,155.835
62.314,5.31982,-3.05244,-0.616337,-86.3641,-55.5314,157.833
62.319,5.5811,-2.98832,-0.237291,-97.2996,-52.4603,159.848
62.324,5.65167,-3.07383,0.223683,-108.245,-50.265,161.388
62.33,5.7505,-3.07292,0.680579,-118.798,-46.971,162.677
62.335,5.95081,-3.16707,0.816908,-129.632,-42.7415,163.35
62.339,6.14138,-3.37218,0.824598,-140.812,-39.2754,163.365
62.344,6.33056,-3.40454,0.730304,-151.69,-36.9093,163.33
62.35,6.60636,-3.47084,0.568122,-162.041,-35.5785,162.274
62.355,6.63969,-3.83744,0.559335,-172.99,-35.9337,160.925
62.359,6.71611,-4.00419,0.740187,-184.312,-35.9707,160.369
62.365,6.93141,-4.04444,0.721709,-194.313,-36.8858,158.746
62.37,7.00955,-4.35058,0.689845,-203.589,-39.1814,156.194
62.374,7.0766,-4.56977,0.808556,-212.759,-42.1483,153.929
62.379,7.24478,-4.83146,0.890997,-221.694,-45.4688,151.164
62.385,7.37564,-5.26714,1.10742,-230.574,-49.3939,147.951
62.39,7.49333,-5.50075,1.36726,-238.571,-53.1012,144.853
62.394,7.6753,-5.82458,1.44394,-245.686,-57.1177,141.469
62.4,7.79044,-6.29256,1.52531,-252.889,-61.5232,137.91
62.405,7.89141,-6.67464,1.57846,-260.132,-66.6605,134.484
62.409,8.08038,-6.96097,1.73319,-267.178,-72.0855,131.131
62.414,8.17105,-7.408,1.90841,-273.469,-76.9383,127.067
62.42,8.23233,-7.94913,2.08032,-279.271,-81.1911,122.979
62.425,8.16453,-8.60989,2.29367,-284.467,-84.5929,118.824
62.429,8.15257,-9.27865,2.46029,-289.253,-87.4816,115.342
62.434,8.23443,-9.86607,2.67113,-293.523,-92.9527,111.975
62.44,8.16919,-10.3858,2.99844,-297.118,-100.217,108.551
62.444,8.27807,-10.8612,3.51458,-300.991,-106.984,104.929
62.449,8.31529,-11.4284,4.09973,-304.439,-111.664,101.288
62.455,8.33114,-11.9282,4.73618,-306.753,-115.495,98.6135
62.46,8.51068,-12.275,5.11392,-308.07,-119.714,95.5973
62.464,8.72405,-12.6202,5.49111,-308.586,-125.981,92.138
62.469,8.89656,-12.9377,6.01354,-308.779,-134.409,88.7399
62.475,9.08469,-13.1516,6.67149,-309.084,-144.051,85.3965
62.48,9.39096,-13.3608,7.30981,-308.781,-155.184,81.5723
62.484,9.70966,-13.5605,7.871,-307.564,-168.246,77.638
62.49,10.1668,-13.719,8.51463,-305.94,-181.926,73.5335
62.495,10.7563,-13.8169,9.32719,-304.12,-196.556,69.0812
62.499,11.3676,-13.8795,10.283,-302.325,-210.203,64.4812
62.504,11.9778,-13.913,11.4546,-300.297,-220.06,59.0276
62.51,12.5093,-14.0567,12.5847,-297.228,-225.631,51.9643
62.515,12.7941,-14.1321,13.6871,-293.38,-226.037,44.0015
62.519,12.971,-14.0241,14.7205,-288.522,-221.158,35.454
62.525,13.0392,-13.9016,15.7396,-283.287,-211.798,25.7863
62.53,13.0255,-13.7417,16.763,-277.949,-198.477,14.8322
62.534,12.7263,-13.6081,18.1368,-271.891,-181.183,2.16677
62.539,12.5446,-13.5724,19.5172,-264.527,-159.255,-10.7682
62.545,12.1513,-13.9376,20.6816,-256.971,-135.167,-24.0382
62.55,11.6344,-13.8301,21.6768,-249.944,-109.936,-36.7164
62.554,11.0147,-13.099,22.4516,-241.815,-83.6653,-48.6225
62.559,10.2082,-12.0541,22.769,-234.299,-55.8871,-58.8751
62.565,9.23804,-10.6977,22.7804,-226.083,-28.9962,-66.5668
62.569,8.85981,-9.0155,22.8329,-215.662,-3.06644,-71.9634
62.574,8.72491,-7.65021,23.4276,-203.144,22.7752,-77.386
62.58,9.0051,-6.71934,23.8152,-188.36,51.3664,-82.8835
62.585,8.93039,-6.55931,24.2166,-170.371,82.3728,-89.1995
62.589,8.31523,-6.45651,23.9657,-151.814,113.573,-90.1763
62.594,7.62506,-6.42677,23.6033,-133.294,137.217,-89.0624
62.6,7.30681,-8.04798,23.1474,-110.884,146.696,-88.9551
62.605,6.09727,-10.8369,22.7731,-85.1095,147.088,-90.7875
62.609,4.58286,-8.71569,22.4991,-55.7959,139.716,-80.4684
62.615,3.20897,-8.99204,20.8602,-23.6364,119.944,-71.4916
62.62,2.88724,-9.07233,19.5773,3.02986,94.1245,-61.371
62.624,2.66826,-8.1345,19.33,25.1753,72.3764,-51.2847
62.629,1.68548,-7.63707,18.7079,49.0705,57.8646,-40.5588
62.635,-0.0463796,-8.36407,16.9082,74.3719,42.2918,-27.5127
62.64,-2.93052,-9.42772,15.1103,97.1921,22.8692,-8.93358
62.644,-5.7885,-10.9574,12.8112,117.371,2.20104,13.7581
62.65,-7.88781,-14.5048,5.33096,130.135,-23.8335,35.9438
62.655,-12.0697,-18.7464,-6.53018,118.542,-45.4336,55.5531
62.659,-15.6554,-19.8847,-15.3351,90.49,-54.4163,63.3879
62.664,-15.6166,-19.4538,-20.0568,77.6473,-74.9652,57.0452
62.67,-11.9165,-16.3167,-18.2183,83.731,-106.93,45.914
62.675,-5.46692,-10.2519,-5.92007,97.206,-138.432,25.7781
62.679,-4.21529,-9.33614,4.85828,111.377,-152.807,7.19299
62.684,-2.45694,-10.6415,12.1982,125.803,-146.931,-0.545626
62.69,-1.45149,-11.113,12.7152,141.413,-156.614,2.07825
62.694,-0.304792,-11.9876,12.6605,143.79,-150.905,-5.73189
62.699,1.37427,-10.3883,12.984,135.139,-137.569,-5.99723
62.705,1.6246,-9.64615,9.93719,121.841,-111.844,-10.6595
62.71,0.897908,-10.1362,6.50474,110.711,-81.5723,-20.4658
62.714,-0.598094,-9.14786,4.24189,106.124,-63.0396,-28.4201
62.719,-1.40711,-7.97715,3.71956,100.999,-54.2459,-31.5379
62.725,-0.670346,-7.17958,4.39813,91.9364,-53.4568,-33.056
62.73,1.3605,-7.14922,4.75116,83.5296,-54.7271,-38.3925
62.734,4.00756,-7.12575,4.4432,80.7045,-55.3171,-46.388
62.74,6.13448,-8.02618,3.35038,79.9159,-52.0524,-52.7212
62.745,7.25316,-8.58652,2.6087,79.9652,-53.1615,-52.0092
62.749,7.00173,-8.94689,3.74972,81.9345,-56.8221,-44.0147
62.754,6.25697,-8.75459,5.76082,85.915,-56.086,-28.8559
62.76,5.19442,-8.32226,6.32882,89.5806,-51.1121,-16.9147
62.765,4.28743,-7.98514,5.59794,88.2638,-42.2596,-11.6717
62.769,3.80907,-7.95751,4.81391,80.5557,-23.9962,-10.5536
62.775,3.50605,-8.09072,4.06529,71.6787,-3.80474,-10.5942
62.78,2.96038,-8.25559,3.82159,67.5448,9.89747,-9.58252
62.784,2.19324,-8.5787,4.12439,67.639,15.4961,-6.8689
62.789,1.71105,-8.63492,4.3613,68.6404,15.5692,-4.75779
62.795,1.39477,-8.6382,4.22574,69.0601,14.34,-4.45195
62.8,1.02268,-8.76409,4.0086,67.9152,15.7182,-6.27002
62.804,0.555963,-8.92076,3.99639,65.4021,19.6516,-8.52277
62.809,0.133024,-8.92572,4.62192,62.07,23.5029,-10.8836
62.815,-0.211697,-9.06938,5.37705,59.9448,25.9279,-13.4463
62.819,-0.254522,-9.37177,5.53677,58.5346,27.954,-15.7803
62.824,0.158951,-9.45711,5.16534,56.2734,28.5238,-18.4508
62.83,0.386071,-9.54382,4.3351,54.2744,27.1732,-21.855
62.835,0.481401,-9.39765,3.40653,52.7567,23.8271,-24.5607
62.839,0.47706,-8.92729,3.03541,51.485,18.2289,-26.8993
62.844,0.583124,-8.73932,3.22482,50.2847,12.6879,-27.9608
62.85,0.972971,-8.91943,3.33197,49.8381,8.28847,-27.7095
62.855,1.51529,-9.03034,3.04241,49.9195,4.69962,-27.6292
62.859,1.96755,-8.95039,2.67333,50.7456,2.90396,-27.9041
62.865,2.18567,-8.77022,2.07338,51.4289,0.557597,-27.5047
62.87,2.51403,-8.25165,2.00935,50.4219,-2.55302,-26.0546
62.874,2.77936,-7.95046,2.54513,48.7163,-3.70103,-23.4924
62.879,2.91688,-8.08592,2.77749,47.3704,-2.5587,-20.1602
62.885,2.97345,-8.12961,2.67143,46.2217,-2.41838,-16.7649
62.89,2.97557,-7.90137,2.84699,44.0244,-3.72851,-14.5938
62.894,2.82511,-7.73051,3.29189,41.8635,-3.67588,-12.9759
62.9,2.68624,-7.68215,3.74759,40.8632,-1.71391,-11.8176
62.905,2.57171,-7.68383,3.98118,40.0719,1.01766,-10.8981
62.909,2.43964,-7.76465,4.19412,38.552,3.71639,-10.7065
62.914,2.11623,-8.01516,4.35757,37.3732,7.7209,-11.0942
62.92,1.70022,-8.22021,4.54983,36.9277,12.2684,-11.5238
62.925,1.4582,-8.39894,4.83465,36.9916,15.829,-12.2704
62.93,1.30252,-8.62587,5.11315,36.9732,20.6482,-12.7303
62.935,1.2802,-8.7117,4.83894,36.3263,25.2126,-13.2662
62.94,1.28566,-8.74269,4.36656,34.7443,27.5403,-14.6998
62.945,1.29849,-8.81932,3.87843,33.219,27.9758,-16.1918
62.95,1.3786,-8.84374,3.73631,32.3552,26.75,-16.6078
62.955,1.49808,-8.78748,3.82142,32.3528,25.6609,-15.8296
62.96,1.5947,-8.75997,3.91507,32.0687,24.1734,-14.4752
62.966,1.63796,-8.76164,3.78589,31.5543,21.9857,-13.4265
62.971,1.61207,-8.64614,3.71302,30.5828,19.0022,-12.5501
62.976,1.74031,-8.61357,3.72821,30.1505,16.2704,-11.7793
62.981,1.93484,-8.50601,3.67084,29.9577,14.6393,-11.0419
62.986,2.05183,-8.49044,3.77074,29.6474,13.6648,-10.2575
62.991,2.02452,-8.50932,3.9407,29.6638,12.9443,-9.35093
62.996,2.03631,-8.43863,4.11408,30.4026,12.6114,-8.56054
63.001,2.06141,-8.25252,4.0906,31.1617,12.1201,-8.04421
63.006,2.10088,-8.13396,4.00157,30.6608,11.318,-7.29178
63.012,2.02254,-8.33119,3.89849,31.1564,11.2295,-6.87798
63.017,1.88479,-8.46076,3.88314,32.2796,11.5887,-6.39091
63.022,1.87268,-8.48998,3.96206,33.5176,11.49,-5.56309
63.027,1.90276,-8.63733,4.03017,35.1545,10.7527,-4.9623
63.032,1.84677,-8.77828,4.04236,36.115,10.2446,-4.3398
63.037,1.84144,-8.70138,3.9133,37.1961,9.73663,-3.73571
63.042,1.80611,-8.66045,3.71426,38.4829,8.24681,-3.01163
63.047,1.92953,-8.75472,3.75966,40.0595,6.79508,-2.41047
63.053,1.95206,-8.69553,3.97141,42.2921,5.98688,-1.54811
63.058,2.04298,-8.70268,4.18597,43.9588,5.77384,-0.744943
63.063,2.03115,-8.7549,4.13952,45.5711,6.01881,-0.291818
63.068,2.12643,-8.7601,4.06529,47.1897,6.14857,0.201122
63.073,2.19385,-8.81607,4.15697,48.7814,6.41084,0.520443
63.078,2.2028,-8.5982,4.34544,50.0364,6.92583,1.06316
63.083,2.07271,-8.53597,4.60496,51.1213,7.59596,1.70754
63.088,1.82103,-8.64276,4.73234,52.1949,8.68396,1.87882
63.094,1.71518,-8.50329,4.77094,53.2905,9.36867,2.18946
63.099,1.58575,-8.61432,4.77856,54.1937,9.51711,2.84997
63.104,1.64404,-8.70072,4.65143,55.3034,9.34599,4.04998
63.109,1.79394,-8.66178,4.6816,56.6106,8.55322,4.9167
63.114,1.94779,-8.56427,4.67503,57.9456,8.52969,5.57244
63.119,2.10774,-8.58677,4.64328,58.967,9.25731,6.20613
63.124,1.98844,-8.72272,4.81218,60.294,10.4493,6.82535
63.129,1.85512,-8.80609,4.63611,61.1828,11.9285,7.40943
63.135,1.69793,-8.99516,5.12728,62.6677,12.8618,7.44219
63.14,1.37185,-8.76997,5.1844,65.1235,12.9212,8.15985
63.144,1.39812,-9.03572,5.13074,66.5986,12.9326,8.52025
63.15,1.6134,-9.27737,5.01414,69.5204,12.7596,9.05307
63.155,1.83253,-9.37072,4.98821,71.7818,12.5276,9.70715
63.159,1.36175,-9.90178,4.43667,74.2769,12.9383,10.6869
63.164,1.20964,-9.71106,4.998,76.4602,12.1871,12.8447
63.17,0.990009,-9.71777,5.33659,78.5609,9.414,14.03
63.175,0.90915,-10.2396,5.30773,80.8782,7.48273,14.6229
63.179,0.906051,-10.5059,5.12523,84.104,6.49199,15.9222
63.184,0.831969,-10.3245,5.1185,86.6434,4.42803,17.9672
63.19,0.611363,-10.4735,5.35361,89.7502,2.33669,19.2815
63.194,0.620538,-10.6002,5.60238,92.6496,0.518503,20.8578
63.199,0.848419,-10.8824,5.82162,95.4871,-0.913889,22.4378
63.205,1.22599,-11.1054,5.68915,98.0482,-1.23804,24.6486
63.21,1.58157,-11.2778,5.60374,100.683,-0.890868,26.5453
63.214,1.79878,-11.029,5.5699,104.01,-0.867716,28.517
63.219,2.11254,-10.962,5.81675,106.095,0.0259865,29.6497
63.225,2.28982,-11.3462,6.11572,108.057,3.16657,30.0061
63.23,2.48403,-11.5403,6.05221,110.621,7.11719,31.4885
63.234,2.71063,-11.9593,5.817,113.641,11.014,33.1171
63.24,3.03245,-12.2452,5.54075,116.596,14.3949,35.1341
63.245,3.29443,-12.354,5.47786,119.432,17.7755,37.1694
63.249,3.49728,-12.7361,5.50013,123.195,21.8495,38.8185
63.254,3.53436,-13.2639,5.45026,127.03,25.8862,40.5353
63.26,3.55737,-13.7813,5.59396,130.774,30.3058,42.065
63.265,3.49019,-14.0105,5.6904,134.762,36.4774,43.1991
63.269,3.24959,-14.2139,5.09574,138.027,42.7459,43.2315
63.275,2.74385,-14.4925,4.41397,142.083,47.6596,42.773
63.28,2.10018,-14.587,4.03705,146.862,50.9122,43.3809
63.284,1.51863,-14.9828,3.9678,151.891,52.5174,44.7956
63.289,1.10818,-15.7466,3.96683,156.839,54.2287,46.9043
63.295,1.25504,-16.6875,3.80524,161.257,57.5231,49.1876
63.3,1.40529,-17.4554,3.35093,166.308,61.0979,51.9947
63.304,1.67889,-18.1855,2.53087,171.153,63.3763,54.6381
63.309,1.95188,-18.8687,1.61215,175.11,65.2181,56.7206
63.315,2.17784,-19.5695,1.36898,180.293,66.7168,58.7382
63.319,2.42613,-19.5127,1.56776,186.04,68.8615,61.226
63.324,2.76713,-19.2059,1.5203,191.136,71.3944,62.695
63.33,2.98315,-19.3567,1.5049,195.843,74.4025,62.4197
63.335,2.88562,-18.5142,1.22671,199.21,76.2985,63.0682
63.339,2.60919,-17.2613,1.2103,202.167,74.256,63.7993
63.344,2.96948,-15.8543,1.49434,207.205,64.6913,64.3255
63.35,3.37975,-14.9015,2.32159,214.556,47.3096,66.9387
63.355,3.65395,-14.4687,3.26629,222.415,25.2249,71.2054
63.359,3.7629,-14.0815,3.8262,227.795,3.86995,74.6091
63.365,3.71041,-13.015,3.5286,228.648,-15.5346,76.7031
63.37,3.80874,-11.6801,2.98478,225.804,-32.4077,76.0427
63.374,3.76532,-10.7724,2.49052,219.992,-46.4404,73.7817
63.379,3.24345,-10.2193,1.80947,210.748,-56.8825,72.5377
63.385,3.27812,-9.01479,0.751708,198.118,-70.3134,72.539
63.39,3.62218,-8.0336,0.511296,179.415,-86.6173,69.1167
63.394,3.5814,-7.73682,1.99345,159.086,-101.751,68.4054
63.4,2.83111,-7.39263,4.03375,142.042,-113.124,71.8809
63.405,1.62183,-6.96936,5.0687,130.871,-108.308,73.1827
63.409,1.23712,-6.23129,5.4152,126.291,-89.612,68.5052
63.414,1.00209,-5.34975,6.10911,125.966,-72.768,61.351
63.42,0.509541,-5.02243,6.47365,123.45,-58.388,53.9628
63.425,-0.21721,-4.91536,4.85744,114.723,-47.0939,53.974
63.429,-0.185382,-4.278,2.59951,99.029,-43.4526,60.8263
63.434,-0.122012,-5.65655,0.362357,83.6924,-55.7393,67.3746
63.44,1.3448,-6.48794,-2.48193,67.3912,-77.558,77.1811
63.444,3.68969,-5.19209,-5.037,49.1451,-103.332,86.3283
63.449,5.63267,-3.76486,-5.81171,27.9482,-125.202,85.9087
63.455,5.67905,-3.42044,-4.83705,8.86313,-137.812,76.3975
63.46,4.26351,-3.84985,-3.19695,-3.50001,-137.164,68.6289
63.464,3.64552,-4.05166,-1.97935,-13.619,-126.141,66.3965
63.469,3.45391,-3.87073,-1.45474,-23.9458,-113.752,66.4598
63.475,3.25654,-3.6066,-1.56955,-34.1242,-102.164,65.868
63.48,3.01423,-3.5552,-1.82296,-46.1219,-91.1205,65.4839
63.484,2.91809,-3.48735,-1.81696,-60.1102,-80.6555,65.8032
63.49,3.01864,-3.3499,-1.34705,-73.9158,-72.0045,66.0827
63.495,3.1692,-3.24695,-0.867396,-86.6164,-64.552,65.899
63.499,3.28887,-3.33749,-0.560963,-97.9912,-58.713,65.8884
63.504,3.52444,-3.45743,-0.225805,-109.444,-54.9109,66.5452
63.51,3.7695,-3.574,0.235043,-121.913,-52.191,67.4123
63.515,4.00704,-3.73783,0.677822,-134.211,-47.9582,67.3912
63.519,4.09423,-3.96884,1.0235,-145.44,-42.1994,67.1253
63.525,4.09267,-4.25551,1.10466,-155.854,-36.8686,67.7372
63.53,4.03943,-4.48347,1.07023,-165.616,-33.115,68.5466
63.535,3.85614,-4.64115,1.01016,-175.037,-31.5384,69.5513
63.539,3.6906,-4.76177,1.09855,-184.459,-31.3329,70.5182
63.545,3.53854,-4.85774,1.21208,-193.517,-31.3253,71.0419
63.55,3.37839,-4.98784,1.27219,-202.033,-31.8378,71.4711
63.554,3.22006,-5.15368,1.37548,-210.207,-33.0467,71.7024
63.559,3.20907,-5.36219,1.5228,-218.143,-34.8598,71.4573
63.565,3.15497,-5.81585,1.70183,-226.55,-37.2383,70.9603
63.569,3.15749,-6.12727,2.06318,-234.991,-38.8421,70.6525
63.574,3.25986,-6.36859,2.31781,-242.664,-39.5309,69.3154
63.58,3.3576,-6.71069,2.41375,-249.951,-39.726,67.287
63.585,3.48475,-7.00369,2.54431,-257.182,-39.9987,65.2123
63.589,3.62197,-7.22388,2.67838,-264.488,-39.9891,62.6566
63.594,3.77042,-7.43811,2.69569,-271.617,-39.6766,59.6399
63.6,3.94297,-7.71333,2.6796,-278.341,-39.5964,56.4474
63.605,4.05612,-8.01421,2.68676,-284.905,-40.4004,53.4783
63.609,4.11577,-8.37808,2.75513,-291.553,-41.1295,50.3646
63.615,4.1856,-8.84139,2.85714,-297.696,-41.3592,46.9319
63.62,4.16305,-9.34973,3.01993,-303.57,-41.1997,43.6476
63.624,4.09705,-9.96361,3.11888,-309.139,-39.5273,40.7627
63.629,4.03327,-10.5699,3.32774,-313.875,-38.3372,37.6603
63.635,3.97638,-11.0335,3.55177,-317.864,-40.4062,34.5513
63.64,4.09428,-11.3686,3.81159,-321.778,-43.6185,31.1159
63.644,4.22881,-11.7787,4.11591,-324.515,-46.6381,27.3027
63.65,4.25031,-12.3627,4.37578,-326.41,-49.6504,23.7513
63.655,4.41017,-12.8941,4.78077,-327.985,-53.3882,20.6695
63.66,4.70214,-13.3456,5.32222,-329.171,-58.8739,18.0818
63.664,5.15936,-13.6239,6.0596,-330.561,-65.9066,15.3534
63.67,5.77465,-13.897,7.00721,-331.743,-74.4017,11.5409
63.675,6.24589,-14.2062,8.34365,-332.735,-83.3513,6.94474
63.679,6.36226,-14.592,9.9254,-333.451,-90.984,2.55999
63.684,6.23378,-14.8816,11.4282,-333.587,-94.546,-0.802619
63.69,6.32692,-14.8795,12.6093,-333.008,-95.555,-2.69177
63.694,6.29249,-14.9069,13.2402,-330.995,-94.4791,-3.64026
63.699,6.29204,-15.1718,13.6779,-327.188,-93.0594,-5.37528
63.705,6.32821,-15.4999,14.1324,-321.589,-94.7211,-7.14248
63.71,6.30701,-15.7228,14.9742,-315.096,-97.772,-9.14255
63.714,6.27261,-16.0694,16.2673,-308.022,-100.32,-12.5863
63.719,6.41726,-16.5482,17.8109,-298.834,-99.3033,-17.0897
63.725,6.65691,-16.6052,19.2525,-287.339,-94.2781,-21.4
63.73,7.13368,-16.3271,20.7601,-274.005,-88.673,-26.1949
63.735,7.45984,-15.5255,22.3672,-258.251,-82.9388,-32.1229
63.74,7.69041,-13.4316,23.5879,-245.811,-73.1429,-33.8176
63.745,7.92426,-11.2962,24.9576,-234.933,-57.4223,-35.1477
63.75,8.15411,-9.82651,25.7526,-218.666,-39.038,-36.7352
63.755,8.32792,-8.79237,26.3971,-200.092,-22.3137,-39.0016
63.76,8.1334,-7.90044,27.0708,-179.654,-8.13465,-41.6316
63.765,7.45156,-7.36846,27.4995,-155.935,2.64939,-45.0632
63.77,6.37294,-6.94436,27.7084,-131.136,9.59875,-48.3484
63.776,4.90352,-6.46834,28.0559,-105.495,14.5071,-50.1888
63.781,3.33756,-6.18011,28.0225,-77.1328,18.8693,-49.1756
63.786,2.21668,-6.36348,27.185,-46.6412,20.6969,-45.1691
63.791,2.34877,-10.4546,26.6622,-11.8476,18.0096,-44.9933
63.796,0.464465,-11.6137,25.4132,28.5177,17.5444,-42.2647
63.801,-0.441489,-8.22498,23.5562,60.6049,9.45243,-25.114
63.806,-0.500579,-8.10446,19.9344,90.7177,-9.53516,-13.3567
63.811,-0.166802,-7.96356,17.6164,111.418,-35.9154,-1.477
63.817,-0.593724,-8.32247,16.91,130.962,-58.8449,11.7773
63.822,-0.159245,-9.26903,13.206,152.326,-76.5761,28.9326
63.827,0.897452,-11.9615,1.97155,158.991,-103.153,44.7158
63.832,1.42885,-14.9325,-10.6758,137.937,-132.253,51.6079
63.837,-0.391783,-16.8876,-17.4837,105.934,-141.353,45.6955
63.842,-3.56836,-18.2166,-19.328,88.2814,-124.686,36.6591
63.847,-4.87102,-16.2701,-16.6313,91.0249,-107.103,33.0283
63.852,-5.121,-11.9558,-8.84984,108.423,-110.99,30.059
63.858,-6.48546,-9.8517,1.37687,123.744,-129.462,28.2503
63.863,-7.21434,-10.8998,8.90106,136.128,-148.343,29.8447
63.868,-5.89781,-12.1889,12.7452,148.062,-165.808,33.3615
63.873,-3.05472,-12.4694,15.2714,157.793,-173.356,29.0596
63.878,-0.769774,-12.0971,15.5161,163.093,-162.014,20.2504
63.883,1.20888,-11.2471,12.3019,157.611,-135.272,10.1813
63.888,2.13944,-10.6583,8.82094,143.914,-112.041,0.0521401
63.893,1.15636,-10.5658,6.16064,133.205,-97.2891,-7.20365
63.899,0.0912285,-9.67623,4.90927,127.079,-91.5243,-11.256
63.904,-0.78072,-8.32148,5.72243,120.969,-90.521,-14.8682
63.909,-1.44895,-7.28195,7.10382,113.864,-86.0029,-18.069
63.914,-1.52379,-6.88731,7.92001,106.16,-72.1643,-22.6455
63.919,-0.165197,-7.09472,7.10422,98.131,-56.062,-28.1048
63.924,2.11511,-7.05447,5.53714,89.956,-44.4474,-34.1774
63.929,4.10422,-7.18521,4.91665,83.6533,-35.9739,-41.7776
63.934,4.95784,-7.85092,5.6744,79.4608,-27.3069,-47.2816
63.94,4.79527,-9.08245,7.09994,77.9439,-19.9993,-47.4133
63.944,4.31165,-9.85315,8.01595,80.4034,-16.0589,-42.5756
63.949,4.06365,-10.0361,7.05584,84.4288,-14.2992,-36.8118
63.955,3.89787,-9.49959,4.58131,83.7228,-14.5132,-31.3309
63.96,3.58535,-8.51236,2.42129,78.761,-14.9591,-28.653
63.964,3.254,-7.65649,1.88132,72.3054,-13.8776,-28.0546
63.969,2.70701,-7.30799,2.68294,67.3165,-9.4262,-27.1057
63.975,2.34166,-7.3838,3.84323,64.7065,-3.57919,-25.1155
63.98,2.21089,-7.81723,4.50414,63.785,1.51053,-22.5906
63.984,2.18876,-8.58459,4.66612,62.8712,5.95805,-20.4284
63.99,2.19474,-9.28689,4.60064,61.5169,10.5574,-18.3183
63.995,2.09829,-9.46759,4.28401,59.9456,14.033,-16.4316
63.999,1.90807,-9.22576,4.08874,57.5297,16.1767,-15.6457
64.004,1.7433,-8.931,4.40985,54.9929,19.8473,-16.0359
64.01,1.62704,-8.83391,4.66521,53.7853,26.5132,-16.5762
64.015,1.49442,-8.87813,4.36738,53.5628,31.7873,-17.5586
64.019,1.28107,-8.93209,3.73107,53.0179,32.2706,-18.6933
64.025,1.02221,-8.93597,3.11475,51.5758,28.0169,-20.1082
64.03,1.01383,-9.07028,3.15329,48.6351,21.4441,-21.2596
64.035,1.28522,-8.67895,3.31747,46.6467,16.293,-21.8161
64.039,1.39229,-8.45602,3.19664,47.2481,12.6856,-23.1817
64.045,1.29517,-8.54161,3.06716,48.1616,9.42732,-24.5221
64.05,1.24155,-8.56324,3.15996,48.0259,7.23813,-25.0349
64.054,1.27917,-8.52909,3.31156,46.1999,5.71338,-24.4793
64.059,1.55576,-8.47135,3.34661,44.4137,4.20609,-24.0669
64.065,1.99684,-8.51386,3.31515,43.9746,2.8772,-23.7261
64.069,2.3686,-8.73788,3.43032,43.4754,2.54445,-22.5514
64.074,2.46915,-8.6474,3.26496,42.043,4.29802,-20.992
64.08,2.67218,-8.174,3.04604,40.141,5.72563,-20.4887
64.085,2.82811,-7.98719,3.56192,38.45,6.82248,-20.2274
64.089,2.74666,-8.00791,4.04361,37.0033,10.0477,-18.3365
64.094,2.62803,-7.88816,4.18865,35.3131,13.3766,-17.2301
64.1,2.44448,-7.97753,4.0326,33.8386,17.1243,-17.9398
64.105,2.44675,-8.09276,3.91903,32.3181,21.9235,-19.3417
64.109,2.47367,-7.93935,4.2559,31,26.7522,-21.4388
64.115,2.1141,-7.91916,4.50359,29.7283,32.3385,-23.2225
64.12,1.70932,-7.89067,4.70901,28.2532,38.1867,-25.5257
64.124,1.52411,-7.97897,4.73248,27.1641,43.3873,-27.3314
64.129,1.49832,-8.13242,4.49812,25.9773,46.3234,-28.1901
64.135,1.50501,-8.33571,4.1584,24.648,46.5656,-28.4008
64.14,1.5857,-8.64146,3.73077,23.0412,44.7303,-28.0304
64.144,1.82032,-8.95513,3.54947,20.9082,40.7447,-26.6882
64.15,2.0186,-9.04296,3.7044,19.449,36.1553,-24.5806
64.155,2.23826,-8.82081,3.81313,18.3941,31.8604,-22.2463
64.16,2.23817,-8.69354,3.8143,16.6093,28.7739,-20.2287
64.164,2.08167,-8.4913,3.80758,15.0048,26.8346,-19.0369
64.17,1.93628,-8.2451,3.58856,14.6952,25.7655,-19.4618
64.175,1.83907,-8.25948,3.45956,15.272,23.7563,-19.7541
64.179,1.91049,-8.35021,3.45002,16.4551,21.2117,-18.5102
64.184,2.10584,-8.38347,3.39616,17.8648,19.6181,-16.9832
64.19,2.26584,-8.26066,3.46184,19.1931,18.6151,-15.9799
64.194,2.25048,-8.23444,3.3933,20.3457,17.5485,-15.3198
64.199,2.17972,-8.47442,3.37093,21.5658,16.8881,-14.6174
64.205,2.28151,-8.47808,3.40294,23.4577,15.8689,-13.5632
64.21,2.40479,-8.48599,3.4486,25.2073,14.9187,-13.035
64.214,2.46414,-8.4341,3.45715,26.9161,14.0032,-12.7745
64.219,2.50926,-8.46817,3.49828,28.42,13.8765,-12.6313
64.225,2.47888,-8.50993,3.23536,30.0801,13.6377,-12.2758
64.23,2.40673,-8.63322,3.1103,32.4935,11.9746,-11.8578
64.234,2.72407,-8.66318,3.25233,34.952,10.0262,-11.1496
64.24,2.82198,-8.64388,3.51293,36.9659,8.48027,-10.5161
64.245,2.51137,-8.86494,4.14141,37.6505,9.46059,-9.65899
64.249,2.38236,-8.69394,4.37768,39.0118,12.1619,-8.7943
64.254,2.32335,-8.31639,3.99639,40.5673,13.4439,-8.6995
64.26,2.25252,-8.44318,3.62599,41.9195,12.6054,-8.34665
64.265,2.17751,-8.59555,3.7991,43.9838,10.852,-7.38586
64.269,2.15754,-8.44356,4.0512,46.5181,10.0444,-6.56957
64.275,2.23962,-8.27656,4.05149,48.3719,9.57555,-6.16214
64.28,2.21675,-8.5517,3.99321,50.4251,9.33477,-6.06196
64.285,2.47926,-8.5649,3.83992,52.3405,8.95497,-4.84515
64.289,2.65487,-8.85784,4.06575,54.2015,9.0332,-3.97839
64.295,2.76547,-8.88956,4.25011,56.3436,10.558,-3.27384
64.3,2.82251,-8.8567,4.30679,57.6153,12.4011,-3.00745
64.304,2.60249,-9.13437,4.44876,59.0698,14.8123,-3.55856
64.309,2.26182,-8.97876,4.40954,60.7319,16.8518,-3.15939
64.315,1.79815,-9.08173,4.44972,63.179,17.8447,-3.29407
64.319,1.48382,-8.84857,4.42525,65.9581,17.3604,-2.89107
64.324,1.47288,-9.14703,4.63519,68.6337,15.9199,-3.18036
64.33,1.50696,-9.27312,4.60277,72.2944,14.6996,-1.86595
64.335,1.98222,-9.2927,4.5734,75.0188,13.3392,-0.621306
64.339,2.97283,-9.30577,4.74571,77.9223,13.1779,-0.613093
64.344,3.35473,-9.43485,4.92841,80.1174,15.1095,-1.17239
64.35,2.20286,-9.79959,5.18636,81.9197,20.225,0.994745
64.355,1.88088,-9.56165,5.39747,84.6625,22.9459,2.81983
64.359,1.63628,-10.0045,5.53491,87.321,23.1757,3.25014
64.365,1.48679,-10.3697,5.47127,90.5925,23.2764,5.2681
64.37,1.63215,-10.1516,5.31555,93.3477,23.1025,7.1347
64.374,1.70221,-10.2455,5.29706,96.0256,23.367,7.28809
64.379,1.72955,-10.5335,5.2819,98.5437,23.4209,7.60578
64.385,1.54749,-10.8712,5.4496,101.447,23.1611,8.82611
64.39,1.41895,-11.4531,5.90091,104.76,22.9917,9.49438
64.394,1.39461,-11.6494,6.05621,107.528,24.0161,11.4584
64.4,1.34765,-11.748,6.15986,109.385,25.3413,13.1271
64.405,1.09876,-12.0429,6.27124,112.276,25.7443,13.4608
64.41,1.06386,-12.2346,5.9132,115.59,25.5229,14.5397
64.414,1.84514,-12.4716,5.63194,117.744,25.3422,16.1077
64.42,2.1043,-13.013,5.83037,121.482,26.3054,17.5534
64.425,2.23878,-13.2506,5.91451,125.071,28.2096,20.0621
64.429,2.42354,-13.934,5.84597,128.177,31.6921,21.0392
64.434,2.71884,-14.7854,5.22977,131.683,35.3392,22.6167
64.44,3.0996,-15.7425,4.82279,136.207,38.484,25.1985
64.444,3.20359,-16.5558,4.69956,142.527,42.7758,27.8207
64.449,3.15872,-16.9925,4.36813,148.775,47.9546,30.4016
64.455,2.76165,-17.2522,4.01736,154.441,53.2134,31.9962
64.46,2.22466,-17.7875,3.50819,160.682,58.9029,32.5008
64.464,1.60071,-18.2164,2.93865,167.856,63.4505,33.8562
64.469,0.962966,-18.8903,2.71971,175.023,65.4024,35.9351
64.475,0.17684,-19.9435,2.19044,181.425,67.9088,37.8686
64.48,-0.443267,-20.8414,2.084,186.136,73.5661,39.2712
64.484,-0.615606,-21.2306,1.61657,189.658,80.9663,41.4149
64.49,-0.879005,-21.8009,0.169642,193.54,85.7605,43.4451
64.495,-1.08608,-22.075,-1.03133,199.092,87.332,45.0537
64.499,-1.10657,-21.5045,-1.69723,204.063,84.6878,47.6535
64.504,-0.843427,-20.2284,-1.32132,208.308,80.4782,50.3294
64.51,-0.418308,-18.8315,-1.1206,212.13,74.9895,51.4294
64.515,0.674442,-17.2168,-0.923892,217.236,67.4104,50.393
64.519,1.93799,-15.6801,0.326718,222.801,51.0489,50.6276
64.525,3.17058,-14.2748,2.0392,230.093,25.3251,54.3712
64.53,4.50166,-13.6648,3.40219,236.868,-3.33193,58.316
64.534,5.28497,-13.4446,4.47307,240.859,-28.5898,61.8732
64.54,5.6205,-12.549,4.39771,241.399,-50.0581,65.5294
64.545,5.85326,-11.3134,3.97128,237.888,-67.2649,67.3778
64.55,6.0727,-10.0405,3.93403,230.967,-82.6151,69.1527
64.555,5.75592,-9.30664,3.96373,220.696,-97.2119,73.2631
64.56,4.43826,-8.27841,4.32881,207.035,-107.685,77.8686
64.565,3.65878,-7.43161,4.97916,191.887,-111.457,76.4695
64.57,3.15344,-7.36133,4.74877,180.113,-111.963,72.9438
64.575,2.4353,-7.4175,3.7896,172.032,-109.172,69.3909
64.581,1.92381,-7.41949,2.8517,166.573,-103.129,65.6621
64.586,1.38591,-6.89782,2.09695,163.35,-104.72,64.7527
64.591,1.53456,-5.8823,1.56099,151.916,-99.9291,64.3373
64.596,2.36685,-4.6846,1.06197,134.498,-80.6403,61.7282
64.601,2.54522,-3.03614,1.23684,113.908,-62.7216,60.1516
64.606,2.10868,-3.17241,2.85026,90.3671,-41.1048,53.4633
64.611,2.75282,-4.33763,2.95939,68.8835,-18.3151,48.5328
64.616,4.17177,-4.53474,1.04772,50.2915,-6.13684,49.8612
64.622,4.50617,-4.3553,-1.01201,34.918,-4.67487,48.6717
64.627,3.72116,-4.34546,-2.31291,20.0653,-4.5192,46.4265
64.632,3.26779,-4.56902,-2.87324,3.10748,0.704781,44.2118
64.637,3.54196,-4.43925,-3.20208,-12.0841,5.72932,45.0697
64.642,3.76144,-4.09212,-3.56875,-24.8914,7.18036,47.7455
64.647,3.68888,-3.80999,-3.945,-36.853,7.01142,50.2772
64.652,3.32377,-3.78624,-4.0827,-48.4794,6.97579,52.5802
64.657,2.85298,-3.96786,-3.93148,-59.229,6.64772,55.769
64.663,2.37776,-4.07249,-3.58611,-69.4682,4.94294,61.068
64.668,2.11462,-4.03238,-2.92895,-79.0189,0.730153,67.6077
64.673,1.93869,-3.93158,-2.08066,-88.6685,-4.88249,73.4806
64.678,1.90288,-3.80947,-1.26634,-98.7133,-10.1497,77.9831
64.683,2.06781,-3.80057,-0.694009,-109.296,-14.3344,81.3996
64.688,2.12878,-3.8558,-0.232019,-120.159,-18.1623,84.209
64.693,2.20807,-3.99485,0.19011,-130.667,-21.0558,86.1106
64.698,2.32559,-4.29515,0.447921,-140.847,-22.6061,87.3561
64.704,2.39011,-4.50671,0.677237,-150.729,-23.5712,88.938
64.709,2.52188,-4.62743,0.776925,-160.474,-23.9225,90.2162
64.714,2.59744,-4.73153,0.889547,-170.007,-23.8436,90.46
64.719,2.63861,-4.86144,0.90359,-179.483,-23.707,90.6746
64.724,2.75881,-4.96406,0.895976,-188.809,-24.4227,90.6446
64.729,2.90494,-5.01033,0.900402,-198.333,-26.0863,90.5226
64.734,3.01889,-5.10462,0.94725,-207.931,-27.9889,89.9076
64.74,3.16556,-5.261,0.985429,-217.367,-29.8795,88.7407
64.745,3.36578,-5.47426,1.05614,-226.237,-31.7918,87.2335
64.749,3.44547,-5.84918,1.19211,-234.52,-33.9363,85.5233
64.754,3.57027,-6.19876,1.49704,-242.579,-35.4061,83.671
64.76,3.70538,-6.50992,1.83813,-250.441,-36.1211,81.9141
64.765,3.76575,-6.80947,2.16595,-257.733,-36.3939,79.8486
64.769,3.84009,-7.0296,2.42762,-264.674,-36.1072,77.6627
64.775,3.8721,-7.25406,2.50731,-271.522,-35.6358,74.8738
64.78,3.9403,-7.59617,2.50509,-278.302,-35.6654,72.1212
64.785,4.01965,-7.88764,2.54484,-285.009,-36.4468,69.4274
64.789,4.06819,-8.20516,2.57284,-291.484,-37.4407,66.6426
64.795,4.1506,-8.6221,2.63087,-297.433,-38.6612,64.0545
64.8,4.22921,-9.10576,2.79009,-303.066,-40.1172,61.1091
64.804,4.18953,-9.69812,2.90308,-308.447,-41.2762,58.609
64.809,4.14473,-10.2668,2.98282,-313.017,-43.0873,56.1509
64.815,4.18909,-10.8066,3.0439,-317.135,-47.7522,53.7838
64.819,4.27812,-11.2821,3.23971,-321.236,-54.4677,51.0935
64.824,4.36142,-11.8221,3.58756,-325.429,-60.9933,48.2189
64.83,4.45783,-12.3852,4.1161,-329.246,-66.179,45.7942
64.835,4.64309,-12.9747,4.68666,-332.381,-69.5658,43.4141
64.839,4.84757,-13.5683,5.06582,-334.435,-72.8872,41.239
64.844,5.13128,-14.0569,5.45739,-336.08,-77.4525,39.7036
64.85,5.48279,-14.5425,5.81708,-337.468,-84.4483,38.2042
64.855,5.99444,-15.0556,6.33665,-338.604,-94.4739,36.6924
64.859,6.75141,-15.5884,7.09798,-339.008,-108.331,34.2669
64.865,7.55556,-16.0769,8.39083,-339.265,-123.98,30.7524
64.87,8.3428,-16.6028,10.0485,-339.551,-137.494,26.6831
64.874,8.84137,-17.2793,11.8445,-339.034,-145.251,22.6784
64.879,9.37171,-17.6784,13.4399,-337.226,-145.474,18.7542
64.885,9.89851,-17.7778,14.6988,-333.699,-140.495,14.8214
64.89,10.0714,-17.6794,15.7053,-327.327,-133.594,10.9528
64.894,10.3897,-17.3934,16.7466,-319.756,-124.193,6.08245
64.9,10.7898,-17.141,17.7514,-310.744,-114.71,-0.278117
64.905,11.2621,-16.8657,18.5318,-298.844,-107.098,-8.77011
64.909,11.7213,-16.3665,19.6097,-284.839,-102.215,-19.6906
64.914,12.1687,-14.8932,20.9093,-272.08,-92.784,-29.415
64.92,12.3667,-12.7904,22.2344,-265.005,-76.5269,-36.6358
64.925,12.4915,-10.9904,23.488,-257,-56.2035,-44.5868
64.929,12.436,-9.646,24.9198,-245.597,-31.5003,-53.6885
64.934,12.1769,-8.67198,26.4727,-228.923,-3.76442,-64.2067
64.94,11.0459,-7.97834,28.2777,-209.347,28.1482,-75.0744
64.944,9.30696,-7.40983,29.8757,-189.166,67.8583,-83.4955
64.949,7.6178,-6.83076,30.0866,-164.519,106.939,-87.3364
64.955,6.19492,-5.7869,28.3986,-134.767,130.387,-87.0753
64.96,4.8447,-5.01577,26.2624,-103.739,130.762,-83.6173
64.964,3.99823,-7.04799,24.246,-70.631,119.057,-80.4519
64.969,3.62842,-8.11251,23.0158,-33.1736,103.329,-71.0951
64.975,3.21596,-9.82456,20.7996,5.20888,80.3905,-58.6079
64.98,2.48084,-11.0524,18.3174,41.4114,53.9975,-45.4825
64.984,1.72443,-10.042,17.0584,72.0203,28.7278,-31.7736
64.99,1.09716,-8.49377,15.764,97.4763,4.15191,-20.6665
64.995,-0.14849,-6.63112,14.3908,118.273,-21.7208,-9.76587
64.999,-0.88025,-4.97923,13.8096,133.047,-50.5857,-1.14248
65.004,-3.17963,-7.39583,11.1902,142.841,-78.5972,9.24417
65.01,-7.10021,-12.5173,3.82009,154.663,-111.452,27.1846
65.015,-8.62962,-16.2431,-7.29207,157.753,-159.602,41.923
65.019,-10.1109,-17.6821,-16.5671,141.27,-211.544,49.7288
65.025,-11.751,-18.5853,-20.4332,125.954,-247.969,52.8471
65.03,-9.91994,-18.4152,-19.6733,125.429,-282.297,52.5825
65.034,-8.03522,-17.4562,-13.5696,136.932,-318.248,52.6339
65.039,-5.84534,-15.7367,-1.74514,150.512,-335.749,50.3539
65.045,-2.55603,-13.3665,10.878,171.12,-341.473,44.9305
65.05,-0.154449,-12.5378,19.2538,198.819,-342.659,37.4776
65.054,0.961599,-12.5508,22.5638,213.92,-329.773,31.0148
65.059,3.18599,-10.9937,21.2539,206.784,-297.768,21.1002
65.065,5.69312,-9.42579,17.4485,186.601,-256.529,0.678511
65.069,6.5049,-9.61468,14.7024,167.234,-204.761,-24.7703
65.074,4.28307,-10.3815,13.4378,155.704,-138.178,-41.1521
65.08,-0.880102,-11.3365,11.7579,150.366,-66.5384,-47.2488
65.085,-4.20398,-10.877,7.79899,145.355,-13.3275,-44.9767
65.089,-2.45821,-7.8528,2.45453,132.015,1.32741,-44.7997
65.094,2.58551,-5.1556,0.26634,117.391,-18.4096,-51.8784
65.1,7.34662,-5.12149,1.8713,115.831,-49.2722,-55.2393
65.105,9.2315,-5.42363,4.11967,124.578,-63.7016,-45.0528
65.109,8.25021,-5.62499,4.73532,127.711,-55.7584,-34.5393
65.115,6.41313,-6.37605,4.87995,116.486,-32.9745,-32.1317
65.12,3.88743,-7.38602,4.60489,102.522,-7.4955,-33.4667
65.124,1.73302,-7.64727,4.45501,93.7324,5.947,-33.0291
65.129,0.763334,-8.05507,5.77846,90.5086,7.11186,-30.2696
65.135,0.675119,-8.63206,7.19204,93.6884,0.876686,-24.4912
65.14,0.664425,-9.84468,5.13841,97.5551,-12.9038,-18.7633
65.145,-0.0808287,-10.0072,4.69836,92.5372,-19.2207,-14.9149
65.15,-0.253815,-8.28195,5.04833,83.9641,-17.4085,-15.2343
65.155,0.901408,-7.47926,4.69135,80.1485,-14.5971,-19.9661
65.16,0.762067,-8.09687,4.65905,79.9244,-12.7907,-21.8139
65.165,-0.43434,-9.02374,5.03029,77.3798,-13.2854,-21.9062
65.17,-0.720898,-9.42154,5.68686,71.2101,-13.3865,-23.0911
65.175,-0.331487,-9.18985,5.98712,66.0381,-10.679,-26.5988
65.18,-0.106417,-9.23295,5.23927,62.1402,-7.56289,-30.2486
65.186,0.0973632,-9.4109,4.60398,57.6572,-5.65285,-31.6821
65.191,0.471991,-9.18663,4.07757,54.2668,-4.52761,-31.6304
65.196,1.03678,-8.81937,3.84636,51.8093,-4.44038,-31.5495
65.201,1.52207,-8.50465,3.88709,50.4997,-4.02239,-31.6291
65.206,1.92746,-8.53522,3.74903,49.1507,-2.62557,-30.7411
65.211,2.36339,-8.45596,3.33648,46.504,-0.805692,-28.2358
65.216,2.63889,-7.90847,3.08546,44.3233,-0.214433,-26.7402
65.221,2.43066,-7.78646,3.31005,43.0133,-0.891197,-26.4324
65.227,2.11124,-8.0499,3.62635,42.9372,-1.55701,-25.7273
65.232,2.05576,-8.36035,3.54445,43.3557,-2.11834,-24.6112
65.237,2.13419,-8.32767,3.58256,43.7381,-2.3743,-23.7284
65.242,2.09184,-8.36183,3.43169,44.1345,-2.53235,-22.7517
65.247,2.42069,-8.40109,3.23649,44.7713,-2.73635,-21.0104
65.252,2.77567,-8.28447,3.34146,44.4598,-3.04295,-19.4156
65.257,2.79171,-8.54138,3.69685,43.4972,-1.91327,-18.4263
65.262,2.6241,-8.79464,4.15073,43.5784,0.635498,-17.0515
65.268,2.35226,-8.90069,4.01912,43.23,2.63629,-16.0714
65.273,2.14067,-9.16221,3.4868,42.2893,4.17548,-16.1461
65.278,1.99932,-9.19819,3.44915,41.7683,4.48543,-15.915
65.283,1.80828,-8.94009,3.75643,41.5945,3.46251,-15.8536
65.288,1.5021,-8.8048,4.19653,41.9488,2.53576,-15.972
65.293,1.27084,-8.75945,4.36448,41.7029,1.55016,-15.9782
65.298,1.38407,-8.70592,4.47205,41.2819,1.02235,-16.3161
65.303,1.72164,-8.51948,4.59089,40.4932,1.84472,-16.6181
65.309,1.93744,-8.50498,4.48111,39.5341,3.39561,-17.2173
65.314,2.02448,-8.62176,4.12935,38.9414,5.07704,-18.2456
65.319,1.96332,-8.56305,4.01521,39.2443,5.97939,-18.6763
65.324,1.8927,-8.31407,3.96863,39.316,5.56168,-18.2124
65.329,1.91295,-8.31889,4.25984,39.2726,4.50714,-17.7018
65.334,1.94486,-8.33047,4.50034,39.4973,4.03492,-17.0456
65.339,2.13604,-7.92169,4.7424,39.141,4.25291,-16.5453
65.344,2.13301,-7.82579,4.56519,38.0805,4.88452,-16.6077
65.35,1.91228,-7.95091,4.35557,37.8664,5.13189,-16.7935
65.355,1.853,-7.77157,4.41405,38.0881,4.00294,-16.166
65.359,1.89912,-7.83144,4.55655,38.1867,2.73836,-15.5373
65.365,1.96629,-7.67713,4.52252,38.1307,1.91426,-15.1063
65.37,2.10714,-7.83013,4.58607,38.1012,1.53102,-14.9008
65.374,2.14375,-7.89336,4.60288,38.4902,1.54021,-14.3745
65.379,2.28024,-7.9503,4.60741,38.3276,1.52813,-13.8223
65.385,2.35682,-8.04264,4.69518,38.168,2.17279,-13.2413
65.39,2.32478,-8.05381,4.77074,38.1477,3.0454,-12.9584
65.394,2.25554,-8.10075,4.79273,37.9314,4.0127,-12.7446
65.4,2.21957,-8.05806,4.71637,37.5208,4.68873,-12.5944
65.405,2.29751,-8.01632,4.75135,36.9587,5.03328,-12.6309
65.409,2.4009,-7.98407,4.85767,36.5738,5.62879,-12.7177
65.414,2.5829,-7.91955,4.97144,35.8432,6.3159,-13.046
65.42,2.44233,-8.00303,5.00182,35.3319,7.54775,-13.1426
65.425,2.084,-7.98226,4.97193,35.0737,8.50322,-12.395
65.429,2.00407,-8.05494,4.89174,34.1555,8.35145,-11.9402
65.434,2.07677,-8.33313,5.01507,33.7624,7.63906,-11.6937
65.44,2.07798,-8.18754,5.02496,33.4803,6.86038,-10.7212
65.444,1.99472,-8.1195,5.14699,32.5311,5.99696,-10.0752
65.449,1.89644,-8.22081,5.29531,32.0275,5.63289,-9.739
65.455,1.90167,-8.1815,5.39353,31.1432,5.75469,-9.05904
65.46,1.96914,-8.18883,5.391,30.11,5.68041,-8.5487
65.464,2.0375,-8.14637,5.26806,28.9796,5.53097,-7.86617
65.469,2.08097,-7.95482,5.30147,27.7659,5.12236,-7.73331
65.475,1.96664,-7.91603,5.5053,26.8933,5.30516,-8.18862
65.48,1.73059,-8.02705,5.54454,25.9957,6.08981,-8.39529
65.484,1.70116,-8.09494,5.57304,25.2587,6.89214,-8.76343
65.49,1.81992,-8.17784,5.46112,24.8959,8.03814,-9.50628
65.495,2.03167,-8.143,5.29342,24.8215,8.89382,-10.3864
65.499,2.17037,-8.09425,5.06003,25.1564,9.60046,-11.0144
65.504,2.27321,-8.26538,5.03309,25.907,10.2823,-12.1546
65.51,2.23338,-8.4052,5.11943,26.8066,11.1601,-13.1253
65.515,2.23037,-8.63489,5.16011,27.9696,12.3495,-13.9846
65.519,2.16907,-8.73621,4.97943,29.3405,13.5478,-14.29
65.525,2.19994,-8.88912,4.76706,31.5314,13.921,-14.4934
65.53,2.26121,-8.98143,4.75449,34.2313,13.7821,-14.2005
65.534,2.24198,-8.9507,4.7876,37.1556,13.7445,-13.6506
65.539,2.07764,-8.96641,4.69495,40.4376,13.8173,-13.5865
65.545,1.83089,-9.08442,4.56888,43.8398,13.5099,-13.1446
65.55,1.6489,-9.19723,4.35929,47.733,12.8433,-12.3231
65.554,1.613,-9.34895,4.24905,51.9941,10.9675,-11.1296
65.559,1.61286,-9.46838,4.37346,56.6288,7.96021,-9.52706
65.565,1.49651,-9.36715,4.59657,61.0221,4.95246,-7.88766
65.569,1.54679,-9.50421,4.95568,64.8287,2.41618,-6.84921
65.574,1.64716,-9.5973,5.19923,68.4525,1.69419,-5.77095
65.58,1.85232,-9.70629,5.14501,72.1795,1.64648,-4.81619
65.585,2.03073,-9.96268,5.16757,75.7762,0.916046,-4.31948
65.589,2.14162,-10.0735,5.22588,78.7441,0.405837,-3.08568
65.594,2.23452,-10.0266,5.20026,82.0342,-0.121045,-1.76413
65.6,2.32325,-10.0114,5.27381,85.2871,-0.149584,-0.678667
65.605,2.47186,-10.1295,5.45214,88.4394,0.377701,0.159936
65.609,2.57689,-10.1358,5.50515,91.4242,1.19552,1.1174
65.615,2.70629,-10.1855,5.59032,94.2081,2.55161,1.98028
65.62,2.7927,-10.2677,5.64733,96.7199,4.29036,2.68384
65.624,2.92071,-10.3987,5.65886,99.4277,5.93438,3.45639
65.629,3.00826,-10.4434,5.69213,101.871,7.65283,4.11208
65.635,3.0763,-10.4826,5.7881,104.015,10.0274,4.84263
65.64,3.16041,-10.565,5.83012,106.075,12.8571,5.03238
65.644,3.07802,-10.7872,5.89046,107.932,15.5684,5.09879
65.65,3.02432,-11.1071,5.88354,110.069,18.2512,5.78682
