t,acc_x,acc_y,acc_z,gyr_x,gyr_y,gyr_z
55.001,-3.61169,-8.79931,0.526905,-2.31934,-35.0952,-6.53076
55.006,-3.61169,-8.80409,0.455056,-1.40381,-35.0952,-6.40869
55.012,-3.61169,-8.78972,0.450259,-0.610352,-34.9731,-5.92041
55.016,-3.54941,-8.80888,0.421526,0.183105,-34.4849,-5.24902
55.022,-3.54941,-8.83762,0.440685,0.915527,-33.9966,-4.63867
55.026,-3.55421,-8.87594,0.4311,1.40381,-33.3252,-4.27246
55.032,-3.53026,-8.88553,0.411942,2.07519,-32.6538,-3.35693
55.036,-3.47757,-8.8951,0.387995,2.99072,-31.7993,-2.19727
55.042,-3.41051,-8.88553,0.373624,3.78418,-30.5786,-0.732422
55.047,-3.35303,-8.87594,0.31135,4.5166,-28.8696,0.793457
55.052,-3.3195,-8.85199,0.301775,5.06592,-26.9165,2.13623
55.057,-3.27638,-8.80888,0.263448,5.43213,-24.9023,3.60107
55.061,-3.3195,-8.81846,0.268245,5.49316,-22.8882,5.06592
55.067,-3.34824,-8.84241,0.244289,5.49316,-21.0571,6.34766
55.071,-3.38177,-8.86637,0.273032,5.37109,-19.6533,7.50732
55.077,-3.43446,-8.93343,0.287404,4.94385,-18.7988,8.42285
55.081,-3.50152,-8.9909,0.301775,4.69971,-18.3105,9.33838
55.087,-3.5111,-9.06754,0.292191,4.57764,-18.0664,10.1929
55.092,-3.59253,-9.11544,0.234714,4.45557,-18.0054,10.9863
55.096,-3.59253,-9.1394,0.249086,4.27246,-18.2495,11.6577
55.102,-3.58295,-9.21125,0.215555,3.78418,-18.4937,12.085
55.106,-3.56379,-9.35494,0.215555,3.2959,-18.8599,12.2681
55.112,-3.63085,-9.51781,0.124538,2.68555,-19.165,12.3901
55.116,-3.65001,-9.65193,-0.00958437,2.13623,-19.7144,12.3291
55.122,-3.67875,-9.82437,-0.0143716,1.58691,-20.5688,11.9629
55.126,-3.71228,-9.9537,-0.0766455,1.09863,-21.7285,11.5967
55.131,-3.76976,-10.0878,-0.134122,0.549316,-23.1934,11.0474
55.137,-3.81766,-10.2172,-0.162866,0.061035,-24.9023,10.376
55.141,-3.88951,-10.38,-0.239501,-0.305176,-26.9165,9.39941
55.147,-3.91825,-10.5285,-0.268245,-0.732422,-29.1138,8.36182
55.151,-3.91346,-10.6866,-0.301775,-0.915527,-31.6772,7.32422
55.157,-3.97094,-10.8303,-0.287404,-1.2207,-34.0576,5.92041
55.161,-4.04759,-11.0315,-0.330509,-1.52588,-36.438,4.63867
55.167,-4.08112,-11.1943,-0.320934,-1.70898,-38.9404,3.11279
55.172,-4.06675,-11.338,-0.349677,-2.01416,-41.0767,2.01416
55.177,-4.07153,-11.4865,-0.421526,-2.13623,-42.7246,1.15967
55.182,-4.13859,-11.6302,-0.426313,-2.19727,-44.2505,0.244141
55.187,-4.12422,-11.726,-0.469428,-2.2583,-45.3491,-0.732422
55.192,-4.14338,-11.8745,-0.507746,-2.44141,-45.8374,-1.52588
55.197,-4.16254,-11.9991,-0.57001,-2.68555,-46.1426,-2.31934
55.202,-4.16254,-12.138,-0.632284,-2.99072,-46.2646,-2.80762
55.207,-4.18171,-12.3008,-0.708929,-3.41797,-46.3257,-3.17383
55.212,-4.26793,-12.4349,-0.752035,-3.72314,-46.2646,-3.60107
55.217,-4.40684,-12.5451,-0.780778,-3.78418,-46.0815,-3.479
55.223,-4.54096,-12.6074,-0.780778,-3.72314,-46.0205,-3.05176
55.228,-4.64155,-12.5547,-0.737663,-3.66211,-46.0205,-2.56348
55.233,-4.73735,-12.4781,-0.689771,-3.78418,-46.2646,-1.46484
55.238,-4.82357,-12.3487,-0.637071,-3.72314,-46.5088,-0.061035
55.243,-4.91937,-12.1667,-0.651443,-3.66211,-46.9971,1.64795
55.248,-4.97685,-11.9991,-0.550851,-3.60107,-47.6074,3.54004
55.253,-4.97206,-11.8362,-0.565223,-3.78418,-48.3398,5.7373
55.258,-4.99122,-11.6542,-0.613125,-4.02832,-49.0723,8.23975
55.264,-4.96727,-11.4721,-0.617912,-4.21143,-49.7436,10.8643
55.269,-4.92416,-11.3428,-0.617912,-4.63867,-50.5371,13.6719
55.274,-4.81878,-11.2039,-0.598753,-5.06592,-51.4526,16.6626
55.279,-4.75651,-11.0123,-0.632284,-5.37109,-52.5513,20.0195
55.284,-4.67508,-10.8734,-0.608338,-5.7373,-53.833,23.1934
55.289,-4.54575,-10.7105,-0.57001,-6.28662,-55.1758,26.6113
55.294,-4.426,-10.5812,-0.531692,-6.71387,-56.7627,30.0293
55.3,-4.33499,-10.4088,-0.517321,-7.26318,-58.4717,33.1421
55.305,-4.26313,-10.2315,-0.459844,-7.69043,-60.3027,36.3159
55.31,-4.24876,-10.0687,-0.416729,-8.11768,-62.2559,39.1846
55.315,-4.22481,-9.94891,-0.359252,-8.54492,-64.0259,41.9311
55.32,-4.21044,-9.87706,-0.364039,-8.78906,-65.8569,44.4946
55.325,-4.20087,-9.88665,-0.39757,-8.72803,-67.2607,46.814
55.33,-4.17212,-9.88185,-0.387995,-8.60596,-68.4814,49.0723
55.335,-4.14818,-9.86748,-0.407154,-8.48389,-69.5801,50.7202
55.341,-4.15775,-9.92496,-0.445472,-8.05664,-70.6177,52.2461
55.346,-4.14818,-9.98723,-0.488587,-7.56836,-71.5942,53.6499
55.351,-4.11465,-10.107,-0.507746,-7.08008,-72.2656,54.7485
55.356,-4.038,-10.2794,-0.541277,-6.89697,-72.4487,55.542
55.361,-3.9949,-10.3944,-0.627497,-6.22558,-72.4487,56.0303
55.366,-3.9949,-10.5381,-0.708929,-5.43213,-72.7539,56.0303
55.371,-3.9949,-10.7057,-0.771194,-4.45557,-73.2422,56.0303
55.376,-4.00447,-10.8782,-0.775991,-3.11279,-73.8525,55.9082
55.381,-3.9949,-11.0267,-0.866998,-1.70898,-74.707,55.481
55.387,-4.00447,-11.1321,-0.876573,-0.305176,-75.6226,55.0537
55.391,-3.97094,-11.2278,-0.905316,1.2207,-76.2939,54.5654
55.397,-3.9422,-11.2901,-0.977164,2.80762,-76.9043,53.894
55.401,-3.95178,-11.3332,-1.02985,4.57764,-77.2705,53.2227
55.407,-3.93262,-11.3284,-1.0586,6.04248,-77.4536,52.5513
55.411,-3.89909,-11.2758,-1.09691,7.62939,-77.3926,51.7578
55.417,-3.89909,-11.2566,-1.14961,9.15527,-77.3315,51.2695
55.422,-3.89909,-11.156,-1.21188,10.376,-77.2705,50.5981
55.427,-3.87993,-11.0506,-1.25499,11.5967,-76.9653,49.9878
55.432,-3.83203,-10.9788,-1.33163,12.6343,-76.7212,49.6216
55.436,-3.7506,-10.883,-1.35079,13.5498,-76.355,49.3164
55.442,-3.66438,-10.7345,-1.39869,14.3433,-75.9888,49.1943
55.446,-3.64522,-10.6147,-1.44659,14.7095,-75.5005,48.9502
55.452,-3.58774,-10.5093,-1.48012,15.0146,-74.7681,49.0723
55.456,-3.53984,-10.4231,-1.45618,15.564,-74.1577,49.1333
55.462,-3.49194,-10.3034,-1.40827,15.9302,-73.2422,49.5605
55.467,-3.50152,-10.174,-1.346,16.0522,-72.5708,50.1099
55.471,-3.46799,-10.0543,-1.32684,15.9912,-72.1436,50.7202
55.477,-3.44404,-9.92975,-1.27415,15.8691,-71.7163,51.3306
55.481,-3.42488,-9.78605,-1.22146,15.564,-71.4111,52.063
55.487,-3.35782,-9.67588,-1.16398,15.0146,-71.167,52.6733
55.491,-3.27638,-9.58008,-1.10171,14.5874,-70.6787,53.3447
55.497,-3.26202,-9.46032,-1.02507,13.7939,-70.1904,54.1382
55.501,-3.28118,-9.33578,-0.96759,13.2446,-69.8853,54.9927
55.506,-3.28597,-9.23041,-0.924475,12.6343,-69.519,55.9082
55.512,-3.24285,-9.06754,-0.871785,11.7187,-69.0918,56.7017
55.516,-3.14227,-8.943,-0.838255,10.6201,-68.6035,57.5561
55.522,-3.1231,-8.81368,-0.809521,9.64355,-67.8101,58.2886
55.526,-3.11353,-8.68913,-0.799937,8.66699,-66.8945,58.96
55.532,-3.07041,-8.58375,-0.785565,7.62939,-65.979,59.2651
55.536,-3.07521,-8.46879,-0.819096,6.71387,-65.1245,59.8755
55.542,-3.02251,-8.37778,-0.866998,5.98144,-64.3921,60.1196
55.547,-2.96025,-8.2676,-0.857414,5.31006,-63.7207,60.5469
55.552,-2.92193,-8.18138,-0.890944,4.63867,-62.9883,60.73
55.557,-2.8836,-8.09516,-0.9149,3.96728,-62.1948,60.73
55.561,-2.90276,-7.99937,-0.919687,3.479,-61.2183,60.4858
55.567,-2.90276,-7.93709,-0.953218,3.05176,-60.4858,60.2417
55.571,-2.85965,-7.82213,-0.953218,2.86865,-59.6924,59.9976
55.577,-2.84528,-7.73112,-0.910103,2.31934,-59.082,59.5703
55.581,-2.84528,-7.68322,-0.943634,1.77002,-58.5937,58.96
55.587,-2.79738,-7.58743,-0.895741,1.40381,-58.0444,58.2886
55.592,-2.78781,-7.52515,-0.876573,1.09863,-57.6782,57.5561
55.597,-2.80696,-7.53952,-0.890944,0.732422,-57.373,56.5186
55.602,-2.80696,-7.5012,-0.890944,0.488281,-57.1899,55.481
55.607,-2.7399,-7.44372,-0.890944,0.244141,-56.9458,54.3823
55.612,-2.692,-7.42935,-0.905316,0.12207,-56.5796,52.9785
55.617,-2.65847,-7.41019,-0.866998,-0.061035,-55.9692,51.6968
55.623,-2.6489,-7.41019,-0.890944,-0.366211,-55.481,50.293
55.628,-2.57225,-7.42456,-0.9149,-0.488281,-54.8096,48.645
55.633,-2.55309,-7.39103,-0.900529,-0.793457,-53.9551,46.875
55.638,-2.53872,-7.38145,-0.857414,-1.15967,-53.0395,45.0439
55.643,-2.52435,-7.36229,-0.857414,-1.40381,-52.0019,42.9687
55.648,-2.50998,-7.37666,-0.871785,-1.89209,-50.9033,41.1377
55.653,-2.48124,-7.39103,-0.823883,-2.2583,-49.6826,39.0015
55.658,-2.45729,-7.41019,-0.809521,-2.74658,-48.4009,36.6211
55.664,-2.44771,-7.43893,-0.756822,-3.2959,-47.1191,34.3018
55.669,-2.42376,-7.4533,-0.732876,-3.78418,-45.5933,31.7993
55.674,-2.42855,-7.48204,-0.737663,-4.08936,-43.8232,29.2358
55.679,-2.42855,-7.49162,-0.752035,-4.39453,-42.0532,26.5503
55.684,-2.38544,-7.48684,-0.756822,-5.00488,-39.978,24.0479
55.689,-2.43813,-7.51557,-0.766406,-5.5542,-37.9028,21.3623
55.694,-2.42376,-7.57784,-0.747247,-6.28662,-35.7666,18.6157
55.699,-2.43334,-7.68801,-0.790352,-6.95801,-33.6304,15.5029
55.705,-2.41897,-7.82213,-0.833467,-7.75146,-31.6162,12.3901
55.71,-2.41897,-7.98978,-0.88137,-8.42285,-29.8462,9.15527
55.715,-2.41418,-8.15265,-0.895741,-9.09424,-28.1372,6.04248
55.72,-2.4046,-8.35383,-0.852626,-9.70459,-26.5503,2.68555
55.725,-2.39981,-8.6077,-0.948431,-10.3149,-25.0244,-0.915527
55.73,-2.39981,-8.83762,-0.981961,-11.0474,-23.5596,-4.5166
55.735,-2.46687,-9.10587,-0.986749,-11.8408,-22.0947,-8.17871
55.74,-2.44771,-9.40763,-1.06338,-12.6343,-20.752,-12.0239
55.745,-2.4525,-9.74773,-1.07297,-13.2446,-19.5923,-15.9302
55.751,-2.50519,-9.97765,-1.10171,-13.855,-18.3716,-19.6533
55.756,-2.5004,-10.2219,-1.13524,-14.4043,-17.2729,-23.0103
55.761,-2.5483,-10.4279,-1.06818,-14.8926,-16.0522,-26.5503
55.766,-2.57704,-10.6435,-1.07297,-15.9912,-14.6484,-30.1514
55.771,-2.58184,-10.8686,-1.07297,-17.2119,-13.4277,-33.5693
55.776,-2.62494,-11.0937,-1.04902,-18.5547,-12.085,-36.8042
55.781,-2.66806,-11.2422,-1.0586,-19.7754,-11.1694,-39.7339
55.786,-2.6441,-11.3189,-1.04902,-20.6299,-10.376,-42.2974
55.792,-2.63931,-11.2997,-1.02985,-21.6064,-9.58252,-44.9219
55.797,-2.63452,-11.2805,-0.991536,-22.9492,-8.72803,-47.4243
55.802,-2.6489,-11.2901,-0.981961,-24.7803,-7.99561,-50.1099
55.807,-2.66326,-11.4147,-0.934059,-26.7944,-7.20215,-53.1006
55.811,-2.68721,-11.5632,-0.919687,-28.9917,-6.71387,-56.0303
55.817,-2.77343,-11.7739,-0.905316,-31.4941,-6.5918,-59.082
55.821,-2.79738,-12.0326,-0.833467,-33.8135,-7.14111,-62.1338
55.827,-2.8836,-12.2864,-0.775991,-36.1938,-8.11768,-64.9414
55.831,-2.93629,-12.4781,-0.74246,-38.0859,-9.52148,-67.5049
55.837,-3.01772,-12.5643,-0.550851,-40.0391,-11.4136,-69.9463
55.842,-3.04168,-12.5882,-0.426313,-42.0532,-13.4888,-72.3877
55.846,-3.09916,-12.6218,-0.296978,-44.1894,-15.8081,-74.7681
55.852,-3.19975,-12.6936,-0.210758,-46.3867,-18.1885,-77.5757
55.856,-3.21412,-12.7846,-0.0958045,-48.8281,-20.5688,-80.5054
55.862,-3.24765,-12.8565,-0.0335306,-51.3916,-23.2544,-83.0078
55.866,-3.27638,-12.8421,0.0574768,-53.5278,-25.9399,-85.4492
55.872,-3.3674,-12.8229,0.205971,-55.6641,-28.5034,-88.0737
55.876,-3.45362,-12.7511,0.325721,-58.0444,-31.1279,-90.3931
55.881,-3.54941,-12.6313,0.502959,-60.3027,-34.1187,-92.4683
55.887,-3.67875,-12.4637,0.680186,-62.439,-37.2314,-94.5434
55.891,-3.77455,-12.2242,0.871785,-64.5142,-40.4663,-96.1914
55.897,-3.89909,-11.8889,1.08255,-66.7114,-43.9453,-97.229
55.901,-4.02363,-11.5584,1.33163,-68.6035,-47.9126,-98.2056
55.907,-4.15297,-11.2614,1.51365,-70.3125,-51.6357,-98.5718
55.911,-4.23919,-10.9213,1.67172,-71.8994,-55.2368,-98.6328
55.917,-4.31103,-10.5956,1.82022,-73.3032,-58.5937,-98.0835
55.922,-4.2296,-10.2028,1.88249,-74.8291,-61.5845,-96.6797
55.927,-4.2296,-9.8579,1.91602,-75.9277,-63.9648,-94.7266
55.932,-4.13859,-9.50344,1.9735,-76.6602,-65.8569,-92.1631
55.936,-4.00926,-9.15856,1.98307,-77.3926,-67.1387,-89.1724
55.942,-3.87515,-8.91426,2.02619,-77.9419,-68.0542,-86.0596
55.946,-3.70749,-8.70829,1.9735,-77.9419,-68.4814,-82.6416
55.952,-3.53984,-8.53106,1.87291,-77.3926,-68.6646,-78.3081
55.956,-3.37219,-8.31551,1.82022,-76.7822,-68.2983,-73.9746
55.962,-3.19975,-8.21013,1.79147,-75.8667,-67.5659,-69.8242
55.967,-2.99378,-8.22929,1.7771,-75.2563,-66.7725,-65.6128
55.971,-2.78781,-8.2724,1.56156,-73.6084,-65.3076,-61.4624
55.977,-2.5004,-8.23407,1.34121,-71.106,-62.7441,-56.4575
55.981,-2.29922,-8.25324,1.24062,-69.0918,-59.4482,-51.3916
55.987,-2.15552,-8.31551,1.13045,-67.0776,-55.3589,-47.0581
55.992,-2.03097,-8.464,1.02507,-64.9414,-50.8423,-43.2739
55.997,-1.95913,-8.71309,0.953218,-62.7441,-46.2036,-39.7339
56.002,-1.87291,-9.00048,0.843052,-59.8755,-41.2598,-36.1328
56.007,-1.74357,-9.29268,0.684973,-56.2744,-36.2549,-32.3486
56.012,-1.59987,-9.58008,0.565223,-51.9409,-30.6396,-28.6865
56.017,-1.52323,-9.84353,0.392783,-47.1802,-24.5972,-24.9023
56.022,-1.44181,-10.0351,0.114963,-41.9922,-18.0054,-21.4233
56.027,-1.39869,-10.2124,-0.0718484,-36.377,-10.9253,-17.9443
56.033,-1.41306,-10.3609,-0.210758,-30.4565,-3.23486,-14.7095
56.038,-1.51844,-10.5381,-0.445472,-24.5361,4.39453,-11.7798
56.043,-1.66693,-10.6674,-0.555648,-18.5547,11.3525,-9.82666
56.048,-1.82979,-10.7153,-0.694558,-12.2681,17.7612,-8.11768
56.053,-1.91602,-10.7967,-0.713717,-5.92041,23.6206,-6.04248
56.058,-1.90644,-10.8351,-0.756822,0.671387,29.4189,-3.60107
56.063,-1.93518,-10.7776,-0.728088,7.01904,35.3394,-1.34277
56.068,-2.0166,-10.7345,-0.775991,12.9395,41.5649,0.610352
56.074,-2.19384,-10.6626,-0.684973,19.165,48.0347,1.95312
56.079,-2.27048,-10.5333,-0.488587,25.7568,55.0537,3.23486
56.084,-2.3567,-10.313,-0.186812,32.0435,62.3169,4.82178
56.089,-2.47166,-10.1405,0.196396,36.8652,69.7632,6.65283
56.094,-2.65368,-9.91538,0.354465,39.6118,76.9043,8.11768
56.099,-3.03688,-9.76689,0.455056,40.4053,82.8247,9.46045
56.104,-3.43925,-9.6136,0.57001,40.5884,86.5478,10.9863
56.109,-3.85119,-9.3789,0.708929,40.5884,87.7075,12.3291
56.115,-4.19607,-9.15376,0.814308,39.7949,87.0972,13.5498
56.12,-4.27272,-8.943,0.74246,38.3301,84.7168,14.7705
56.125,-4.36372,-8.78493,0.699345,36.9873,81.7871,15.3809
56.13,-4.19607,-8.62686,0.929272,36.499,80.7495,15.564
56.135,-3.91346,-8.41131,1.07776,35.7666,81.3599,15.8081
56.14,-3.86556,-8.27719,1.09213,33.4473,82.5195,16.1743
56.145,-3.90388,-8.20055,0.986749,29.9072,83.0688,15.9302
56.151,-4.15297,-8.08079,0.905316,26.8555,81.7261,15.5029
56.156,-4.31103,-7.94668,0.88137,24.1089,78.0029,15.0146
56.161,-4.30625,-7.84129,0.88137,21.4233,72.876,14.5264
56.166,-4.1865,-7.73112,0.866998,18.3105,67.749,13.9771
56.171,-4.03321,-7.69759,0.871785,14.5264,63.1714,13.1836
56.176,-4.00926,-7.69759,0.919687,10.6812,59.2651,11.9629
56.181,-4.038,-7.72154,1.01069,6.71387,55.6641,10.8643
56.186,-4.12422,-7.85087,1.05381,3.11279,51.6357,9.64355
56.192,-4.22003,-7.96104,1.04423,-0.183105,46.875,8.30078
56.196,-4.25356,-8.21013,0.986749,-3.17383,41.1377,7.01904
56.202,-4.24397,-8.28677,0.88137,-5.49316,35.0342,5.92041
56.206,-4.16734,-8.30593,0.737663,-6.95801,29.3579,5.06592
56.212,-4.09069,-8.3203,0.57001,-8.48389,24.1699,4.02832
56.217,-4.06196,-8.33466,0.450259,-9.94873,19.6533,2.80762
56.221,-4.02843,-8.39215,0.354465,-10.9863,15.3809,1.46484
56.227,-4.00447,-8.47358,0.22513,-12.4512,11.3525,0.061035
56.231,-3.9901,-8.59333,0.0335306,-13.916,7.44629,-1.46484
56.237,-4.04279,-8.66997,-0.0526895,-14.7705,3.60107,-3.05176
56.241,-4.06196,-8.81368,-0.162866,-15.1978,-0.183105,-4.69971
56.247,-4.05237,-8.89031,-0.239501,-15.3198,-3.78418,-6.40869
56.251,-4.03321,-9.00048,-0.296978,-15.3809,-7.20215,-7.87354
56.256,-4.05237,-9.10107,-0.287404,-15.3809,-10.3149,-9.33838
56.262,-4.05237,-9.19688,-0.287404,-15.4419,-12.8784,-10.8643
56.266,-4.05237,-9.2831,-0.13891,-15.564,-15.3198,-12.3291
56.272,-4.00447,-9.40763,-0.0574768,-15.625,-17.7612,-13.4888
56.276,-3.98531,-9.48907,0.0718484,-15.686,-20.0195,-14.3433
56.282,-3.9949,-9.51302,0.162866,-15.8081,-22.2168,-14.8926
56.286,-4.01884,-9.51302,0.244289,-15.8081,-24.4751,-15.3809
56.291,-3.96137,-9.50822,0.325721,-15.9302,-26.4893,-15.9302
56.297,-3.92784,-9.51781,0.354465,-16.1133,-28.1982,-16.1133
56.302,-3.88951,-9.49385,0.421526,-16.1743,-29.602,-15.9912
56.307,-3.89431,-9.422,0.426313,-16.3574,-30.8228,-16.0522
56.311,-3.86077,-9.32621,0.392783,-16.7847,-31.7383,-15.8081
56.317,-3.83203,-9.22562,0.421526,-17.2729,-32.5317,-15.2588
56.321,-3.77455,-9.14419,0.479003,-17.8223,-32.959,-14.7095
56.327,-3.74581,-9.09628,0.498162,-18.4326,-33.3862,-14.3433
56.331,-3.80329,-9.08671,0.502959,-19.2871,-33.6914,-14.0381
56.337,-3.82245,-9.14897,0.546064,-20.3857,-33.9355,-13.855
56.342,-3.86077,-9.23999,0.622709,-21.3623,-34.79,-13.6108
56.346,-3.88951,-9.3789,0.646656,-22.3999,-35.8887,-13.3057
56.352,-3.92784,-9.51302,0.775991,-23.1323,-37.4146,-13.1836
56.356,-3.99968,-9.65672,0.785565,-23.8037,-39.3066,-13.1836
56.362,-4.00926,-9.80042,0.809521,-24.1699,-41.5649,-13.4277
56.366,-4.04759,-9.95849,0.905316,-24.353,-44.1284,-13.3667
56.372,-4.06675,-10.1261,0.905316,-24.6582,-46.936,-13.4277
56.376,-4.05716,-10.2603,0.895741,-25.0854,-49.3164,-13.6108
56.381,-4.14818,-10.3944,0.895741,-25.3906,-52.063,-13.6719
56.387,-4.16254,-10.5093,0.866998,-25.3296,-54.5654,-13.7939
56.391,-4.14338,-10.5956,0.819096,-25.2075,-57.1899,-13.7939
56.397,-4.10028,-10.677,0.737663,-24.9023,-59.7534,-13.7939
56.402,-4.09069,-10.7728,0.680186,-24.5972,-62.0117,-13.7329
56.407,-4.09548,-10.8255,0.593966,-23.9258,-63.9648,-13.855
56.412,-4.04759,-10.9165,0.479003,-23.1323,-65.7959,-13.7329
56.417,-4.01406,-10.9836,0.39757,-22.2168,-67.4438,-13.7329
56.422,-3.98053,-11.0506,0.354465,-21.1792,-68.7256,-13.4888
56.427,-3.91825,-11.0985,0.277819,-20.0195,-69.9463,-13.0615
56.432,-3.89909,-11.1656,0.249086,-18.7988,-70.9229,-12.5122
56.438,-3.86077,-11.1799,0.210758,-17.5171,-71.4722,-11.5967
56.443,-3.76976,-11.2278,0.220342,-16.1743,-71.4722,-10.498
56.448,-3.67875,-11.2901,0.129335,-14.8926,-70.8008,-9.39941
56.453,-3.55421,-11.3811,0.0670612,-13.6719,-69.8242,-8.23975
56.458,-3.48235,-11.4865,0,-12.5732,-68.2373,-6.95801
56.463,-3.45362,-11.5919,0.00958437,-11.7187,-66.1621,-5.98144
56.468,-3.40572,-11.7739,-0.0479022,-10.498,-63.6597,-5.12695
56.474,-3.43446,-11.9176,-0.0910074,-9.52148,-60.9131,-4.21143
56.479,-3.49673,-12.0422,-0.0526895,-8.60596,-58.3496,-3.54004
56.484,-3.59253,-12.0757,-0.00478728,-7.56836,-55.7251,-2.56348
56.489,-3.71707,-12.0757,0.0287433,-6.7749,-53.4668,-1.83106
56.494,-3.89431,-12.0565,0.110166,-6.16455,-51.5747,-1.28174
56.499,-4.03321,-12.0134,0.158069,-5.61523,-50.1709,-0.915527
56.504,-4.1865,-11.9559,0.177227,-5.24902,-49.3164,-0.793457
56.509,-4.32541,-11.8553,0.186812,-4.88281,-49.3774,-0.610352
56.515,-4.44994,-11.7691,0.215555,-4.5166,-49.9878,-0.488281
56.52,-4.56969,-11.6829,0.239501,-4.27246,-51.2085,-0.061035
56.525,-4.67987,-11.5248,0.249086,-4.15039,-52.9175,0.305176
56.53,-4.75172,-11.3763,0.25866,-3.78418,-54.8096,0.732422
56.535,-4.8571,-11.1704,0.292191,-3.66211,-57.0679,1.46484
56.54,-4.93374,-10.9165,0.316147,-3.479,-59.6924,2.62451
56.545,-5.01996,-10.6195,0.287404,-3.17383,-62.5,3.96728
56.55,-5.05349,-10.2986,0.296978,-2.80762,-65.6738,5.61523
56.556,-5.00559,-10.0016,0.287404,-2.56348,-68.8477,7.38525
56.561,-4.93374,-9.73336,0.320934,-2.31934,-72.3267,9.09424
56.566,-4.86189,-9.45554,0.268245,-2.07519,-75.8667,10.9863
56.571,-4.75651,-9.30225,0.325721,-1.64795,-79.6509,12.8784
56.576,-4.63676,-9.1825,0.325721,-1.28174,-83.8013,14.4043
56.581,-4.62238,-9.04359,0.100592,-0.305176,-88.6841,15.2588
56.586,-4.6176,-8.92384,-0.0383179,1.0376,-94.7266,15.5029
56.591,-4.45474,-8.93343,-0.0143716,2.31934,-100.769,16.7236
56.596,-4.24397,-8.98612,-0.0814328,3.60107,-106.323,17.5171
56.602,-4.14338,-9.04838,-0.182025,4.63867,-110.535,17.334
56.606,-4.05237,-9.25915,-0.306563,5.5542,-114.38,17.2119
56.612,-3.91825,-9.50344,-0.387995,7.08008,-117.493,18.1274
56.616,-3.77455,-9.68546,-0.479003,8.97217,-119.385,18.8599
56.622,-3.69791,-9.87706,-0.502959,10.8032,-119.812,19.2261
56.626,-3.58295,-10.1261,-0.546064,12.3901,-118.652,20.1416
56.631,-3.58295,-10.4183,-0.555648,14.0991,-115.845,20.752
56.637,-3.559,-10.6722,-0.555648,15.9912,-112.244,20.5688
56.641,-3.6548,-10.9596,-0.560435,17.6392,-107.788,20.6299
56.647,-3.7554,-11.2326,-0.574807,19.043,-102.783,21.4844
56.651,-3.7985,-11.4817,-0.684973,20.6909,-97.4731,22.522
56.657,-3.9901,-11.6829,-0.819096,22.583,-92.2241,23.4985
56.661,-4.17691,-11.9224,-0.948431,24.9634,-87.8906,24.353
56.666,-4.22003,-12.0613,-1.14482,28.4424,-85.083,25.3906
56.672,-4.12422,-12.0996,-1.2502,33.1421,-83.374,26.6724
56.676,-4.04759,-12.0326,-1.33163,37.4756,-82.0312,28.2593
56.682,-4.038,-11.9991,-1.45618,40.2832,-80.5664,29.7852
56.686,-4.10028,-12.0086,-1.59029,42.0532,-78.8574,31.0669
56.692,-4.21044,-12.0374,-1.734,43.457,-77.0264,32.6538
56.696,-4.17691,-12.0374,-1.77231,44.6777,-74.4629,34.5459
56.702,-4.09548,-12.0517,-1.81543,45.6543,-70.9839,36.7432
56.706,-4.04279,-12.0469,-1.74837,46.3867,-66.6504,38.8794
56.712,-4.05716,-12.0469,-1.73878,46.9971,-61.7065,40.8936
56.717,-4.038,-12.0182,-1.69088,47.4853,-57.0679,43.0298
56.721,-4.04759,-12.0278,-1.69568,48.3398,-52.4292,45.4712
56.727,-4.01884,-12.0086,-1.71484,49.0112,-48.4619,47.9736
56.731,-3.9422,-11.9224,-1.71962,49.6826,-45.0439,50.4761
56.737,-3.85119,-11.8122,-1.70047,50.2319,-42.1143,52.9785
56.741,-3.74581,-11.6398,-1.68609,50.354,-39.856,55.481
56.747,-3.65959,-11.4195,-1.72921,50.415,-37.8418,57.9834
56.751,-3.64522,-11.2518,-1.70047,50.415,-35.9497,60.6689
56.756,-3.61648,-10.9692,-1.6334,50.0488,-34.4849,63.3545
56.762,-3.59732,-10.6387,-1.60466,49.3164,-32.959,65.918
56.766,-3.52068,-10.3848,-1.5424,48.4619,-31.4331,68.6035
56.772,-3.4153,-10.0926,-1.48012,47.3633,-29.6631,71.3501
56.776,-3.40572,-9.81958,-1.41306,45.8374,-27.5879,73.7915
56.782,-3.39135,-9.55613,-1.37474,43.9453,-25.4517,75.8667
56.786,-3.3674,-9.36932,-1.32205,42.6025,-23.5596,77.5146
56.791,-3.32907,-9.16813,-1.2981,40.7104,-22.0337,79.2847
56.797,-3.31471,-8.99569,-1.25978,38.5742,-20.813,81.0547
56.802,-3.2716,-8.84241,-1.25978,36.8042,-19.7144,82.2754
56.807,-3.23807,-8.67476,-1.24541,34.79,-18.9209,83.374
56.812,-3.23328,-8.54064,-1.20709,32.959,-18.0664,84.3506
56.817,-3.21412,-8.40173,-1.19751,31.0059,-17.5171,85.2661
56.822,-3.21412,-8.2676,-1.16877,28.8086,-17.334,85.8154
56.827,-3.23328,-8.21013,-1.21188,26.9775,-17.2119,86.0596
56.832,-3.18059,-8.11912,-1.19751,25.1465,-17.8833,86.3647
56.838,-3.16622,-8.04247,-1.21188,23.4375,-18.7378,86.3647
56.843,-3.19975,-7.94188,-1.19751,21.8506,-19.8364,86.2427
56.848,-3.16143,-7.86525,-1.25978,20.2637,-21.2402,85.8765
56.853,-3.10394,-7.77423,-1.26936,18.5547,-22.644,85.2661
56.858,-3.11831,-7.75507,-1.23583,17.0898,-23.9868,84.4116
56.863,-3.07041,-7.68322,-1.28852,15.7471,-25.4517,83.4961
56.868,-2.99378,-7.597,-1.30768,14.2822,-26.7944,82.2143
56.873,-2.98419,-7.53952,-1.31247,12.9395,-28.1372,80.9326
56.879,-2.97462,-7.43415,-1.27415,11.5356,-29.602,79.6509
56.884,-2.92672,-7.37187,-1.31726,10.0708,-30.9448,78.125
56.889,-2.92672,-7.31439,-1.26457,8.8501,-32.3486,76.2939
56.894,-2.91713,-7.23775,-1.25499,7.56836,-33.6304,74.5239
56.899,-2.85965,-7.19943,-1.26457,6.28662,-34.9121,72.4487
56.904,-2.81654,-7.13716,-1.22625,5.06592,-35.9497,70.3735
56.909,-2.80218,-7.09405,-1.21188,3.84522,-37.1704,68.2983
56.914,-2.78781,-7.01262,-1.19751,2.50244,-38.269,65.7959
56.92,-2.76385,-6.98388,-1.12087,1.28174,-39.3677,63.3545
56.925,-2.70637,-6.95035,-1.06818,-0.12207,-40.4053,60.9131
56.93,-2.68243,-6.95035,-1.03944,-1.28174,-41.2598,58.2275
56.935,-2.67284,-6.94077,-0.962802,-2.50244,-41.9922,55.603
56.94,-2.6441,-6.94077,-0.929272,-3.78418,-42.7856,52.8564
56.945,-2.58184,-7.01741,-0.958005,-4.94385,-43.6401,49.8047
56.95,-2.54351,-7.11321,-0.958005,-5.92041,-44.1284,46.875
56.955,-2.51477,-7.2138,-0.9149,-6.83594,-44.3115,43.7622
56.96,-2.43813,-7.39103,-0.895741,-8.05664,-44.3726,40.1001
56.966,-2.43334,-7.56826,-0.924475,-9.33838,-44.4946,36.377
56.971,-2.41897,-7.72634,-0.919687,-10.376,-44.6167,32.7148
56.976,-2.41418,-7.91315,-0.96759,-11.2915,-44.4946,29.0527
56.981,-2.35191,-8.14785,-0.943634,-11.9629,-44.2505,25.3296
56.986,-2.32796,-8.38735,-0.938846,-12.6953,-43.7622,21.5454
56.991,-2.33754,-8.62686,-0.977164,-13.6719,-42.9077,17.4561
56.996,-2.36628,-8.90947,-1.02028,-14.5264,-41.9922,13.3667
57.001,-2.38544,-9.19688,-1.02028,-15.3198,-41.0156,9.27734
57.006,-2.42855,-9.4268,-1.02985,-15.686,-40.1001,5.31006
57.012,-2.39502,-9.65672,-1.02028,-15.9302,-38.7573,1.34277
57.017,-2.41418,-9.86269,-1.07776,-16.1743,-37.2925,-2.56348
57.022,-2.41897,-10.0208,-1.08255,-16.5405,-35.5835,-6.53076
57.026,-2.39023,-10.2124,-1.04902,-16.9067,-33.5083,-10.3149
57.032,-2.3567,-10.38,-1.07297,-17.395,-30.8228,-14.1602
57.036,-2.31359,-10.5381,-1.11608,-17.7612,-27.8931,-17.8833
57.042,-2.28963,-10.6051,-1.24541,-17.7612,-24.6582,-21.1182
57.047,-2.213,-10.6674,-1.29331,-17.8223,-21.4844,-24.4751
57.052,-2.14115,-10.7441,-1.32684,-18.1274,-17.8833,-27.5269
57.057,-2.09325,-10.7488,-1.31726,-18.5547,-14.0991,-30.5176
57.061,-2.05013,-10.7824,-1.34121,-19.2261,-10.3149,-33.5693
57.067,-2.03097,-10.8351,-1.38912,-19.8975,-6.46973,-36.438
57.071,-2.04056,-10.9213,-1.33642,-20.813,-2.74658,-39.3677
57.077,-2.05013,-11.0267,-1.26936,-22.1558,0.854492,-42.3584
57.081,-2.14594,-11.1512,-1.2023,-23.6816,4.27246,-45.7764
57.087,-2.1651,-11.247,-1.13524,-25.2686,7.69043,-48.9502
57.092,-2.27527,-11.3189,-1.07776,-27.0386,10.6201,-52.124
57.096,-2.41418,-11.4051,-0.924475,-29.1748,13.3057,-55.2978
57.102,-2.53393,-11.4961,-0.785565,-31.3721,15.3198,-58.6548
57.106,-2.68721,-11.5727,-0.574807,-33.9966,16.8457,-62.3169
57.112,-2.82134,-11.7069,-0.383208,-37.1094,17.5781,-66.2231
57.116,-2.99378,-11.8697,-0.110166,-40.4053,17.2729,-70.1294
57.122,-3.13747,-12.0134,0.134122,-43.396,16.2354,-74.2798
57.126,-3.28597,-12.0805,0.373624,-46.3867,14.3433,-78.125
57.131,-3.47757,-12.0948,0.598753,-49.4385,11.8408,-81.8481
57.137,-3.58774,-12.0661,0.847839,-52.4902,8.54492,-85.5102
57.141,-3.70749,-11.9655,0.996333,-55.2368,4.88281,-88.6841
57.147,-3.83203,-11.8027,1.1065,-57.7393,1.15967,-91.3696
57.151,-3.90388,-11.5344,1.20709,-60.0586,-2.86865,-93.8721
57.157,-4.04759,-11.1416,1.37953,-62.1948,-7.01904,-95.7031
57.161,-4.20087,-10.7345,1.54718,-64.3921,-11.1694,-96.8017
57.166,-4.2344,-10.313,1.60946,-66.4673,-15.1367,-97.4731
57.172,-4.19607,-9.89143,1.62382,-68.2983,-18.7988,-97.5342
57.177,-4.17212,-9.48428,1.67651,-70.1294,-21.9727,-96.8017
57.182,-4.09069,-9.11065,1.72921,-72.0825,-24.5361,-95.52
57.186,-4.07632,-8.85678,1.86332,-74.2188,-26.6113,-94.2383
57.192,-4.03321,-8.73703,1.90644,-76.2329,-28.8696,-92.8955
57.196,-3.93741,-8.68913,2.08846,-78.186,-31.311,-91.2476
57.202,-3.87035,-8.78015,2.17468,-80.2612,-34.1797,-89.3555
57.207,-3.71228,-8.90468,1.9256,-80.8716,-36.499,-86.9751
57.212,-3.56379,-8.91426,1.93038,-81.1767,-39.0625,-83.8013
57.217,-3.53505,-8.98132,2.07409,-82.0312,-41.748,-80.7495
57.222,-3.50631,-9.15376,2.07409,-83.0078,-44.8608,-78.3081
57.227,-3.38656,-9.39327,2.0214,-83.5571,-48.7061,-75.5615
57.232,-3.29075,-9.60403,2.04056,-83.4351,-52.6733,-72.1436
57.237,-3.14227,-9.75252,2.00703,-83.1909,-56.5186,-68.6646
57.242,-3.06084,-9.90101,1.94954,-82.3364,-60.0586,-65.1245
57.248,-2.98419,-10.0591,1.89685,-81.4209,-63.1103,-61.8286
57.253,-2.8836,-10.2363,1.88249,-80.3223,-65.6128,-59.082
57.258,-2.74948,-10.4471,1.82022,-78.6743,-67.8711,-56.5796
57.263,-2.6489,-10.6483,1.70047,-76.8433,-69.8853,-54.1382
57.268,-2.52915,-10.8734,1.52803,-74.8291,-71.167,-51.6968
57.273,-2.39981,-11.0698,1.37953,-72.2046,-71.7163,-49.4385
57.278,-2.23694,-11.2805,1.24062,-68.9697,-71.5942,-47.3022
57.283,-2.10282,-11.4961,1.11608,-65.1245,-70.1904,-45.166
57.289,-1.95434,-11.7116,1.02028,-60.4858,-67.5659,-42.9077
57.294,-1.64298,-11.8889,1.11608,-55.3589,-63.2935,-40.4053
57.299,-0.886157,-11.9895,1.346,-49.9878,-57.9834,-37.9028
57.304,-0.31135,-11.7595,0.440685,-45.9595,-52.0019,-35.0952
57.309,-0.761619,-11.8793,-0.680186,-43.8843,-43.7622,-29.48
57.314,-0.986749,-12.5738,-0.593966,-33.6304,-28.2593,-23.0713
57.319,0.22513,-12.3056,0.292191,-10.1929,-4.94385,-19.4702
57.324,1.25499,-11.4003,1.47054,11.2305,25.0854,-15.625
57.33,1.23583,-11.2422,2.16988,20.6299,61.4624,-8.54492
57.335,0.0383179,-11.6063,2.0645,23.4985,95.6421,-1.52588
57.34,-1.88249,-11.5584,1.71004,27.2217,118.286,3.23486
57.345,-3.66438,-10.9836,1.31726,31.7383,124.878,6.40869
57.35,-4.84752,-10.1645,1.08255,35.0952,116.333,7.87354
57.355,-5.36963,-9.47469,0.972377,35.8887,99.2432,6.65283
57.36,-5.26904,-9.12503,0.890944,34.4849,80.2002,3.35693
57.366,-4.86189,-8.99569,0.790352,32.2876,64.7583,-0.671387
57.371,-4.517,-9.03881,0.890944,30.6396,55.481,-4.57764
57.376,-4.34456,-9.1346,1.04902,30.0903,51.2085,-7.99561
57.381,-4.4739,-9.06275,1.06818,29.7852,48.2788,-11.1084
57.386,-4.92895,-8.8472,1.09691,28.8086,43.5181,-14.0381
57.391,-5.35526,-8.62686,1.16398,26.4893,35.2783,-17.2729
57.396,-5.55644,-8.38735,1.30768,23.6206,23.4985,-21.1792
57.401,-5.55166,-8.23407,1.48491,20.5688,9.39941,-25.6348
57.407,-5.36963,-8.24366,1.56634,17.5781,-4.88281,-29.8462
57.411,-5.0008,-8.30593,1.57593,15.1978,-17.4561,-33.4473
57.417,-4.54575,-8.30593,1.57113,13.6108,-26.9165,-35.9497
57.422,-4.14818,-8.21013,1.5376,12.146,-32.7148,-37.9028
57.427,-3.76497,-8.11432,1.47054,10.6201,-34.8511,-39.0625
57.432,-3.50152,-7.98978,1.40827,8.48389,-34.4849,-39.978
57.436,-3.43925,-7.86046,1.23583,5.85938,-33.1421,-41.2598
57.442,-3.42009,-7.82213,1.1065,3.479,-31.5552,-42.3584
57.446,-3.45362,-7.77903,0.986749,1.09863,-30.0903,-43.2739
57.452,-3.5111,-7.79818,0.852626,-1.0376,-29.602,-43.8232
57.456,-3.54463,-7.83172,0.708929,-2.92969,-29.7241,-44.6777
57.462,-3.6069,-7.91315,0.565223,-4.57764,-30.0903,-45.5933
57.467,-3.64043,-7.98021,0.498162,-5.92041,-30.3955,-46.3257
57.471,-3.68354,-8.11432,0.421526,-6.83594,-30.7007,-47.3022
57.477,-3.7554,-8.2724,0.359252,-7.93457,-30.7007,-48.3398
57.481,-3.90388,-8.43047,0.316147,-8.91113,-30.8838,-49.3164
57.487,-3.98053,-8.65081,0.25866,-9.33838,-31.0669,-49.9878
57.491,-4.0859,-8.82804,0.244289,-9.76562,-31.4941,-50.5981
57.497,-4.15775,-8.9909,0.273032,-9.70459,-32.0435,-50.9644
57.501,-4.30146,-9.10587,0.25866,-9.58252,-32.7148,-51.0864
57.506,-4.426,-9.20166,0.277819,-9.39941,-33.7524,-51.2085
57.512,-4.48827,-9.22562,0.234714,-9.15527,-35.3394,-51.2695
57.517,-4.55054,-9.27352,0.215555,-8.60596,-37.2925,-51.0864
57.522,-4.61281,-9.27352,0.210758,-7.99561,-39.3066,-50.5371
57.526,-4.6176,-9.23041,0.105379,-7.38525,-41.5039,-49.6216
57.532,-4.62718,-9.19688,0.0383179,-6.95801,-43.2739,-48.5229
57.536,-4.6655,-9.05318,0.0191589,-6.34766,-44.8608,-47.3022
57.542,-4.68944,-8.97653,0.00478728,-5.98144,-46.4477,-45.8984
57.547,-4.68466,-8.89031,-0.0335306,-5.61523,-48.0957,-44.1894
57.552,-4.65591,-8.80888,-0.0910074,-5.49316,-49.7436,-41.9311
57.557,-4.66071,-8.7514,-0.0862201,-5.37109,-51.2085,-39.6729
57.561,-4.66071,-8.66997,-0.110166,-5.12695,-52.4292,-37.2925
57.567,-4.64634,-8.63644,-0.129335,-4.88281,-53.6499,-34.729
57.571,-4.58885,-8.62686,-0.162866,-4.94385,-54.8706,-32.2876
57.577,-4.51222,-8.6604,-0.0766455,-5.24902,-56.0303,-29.4189
57.581,-4.40684,-8.70829,-0.105379,-5.61523,-56.8848,-26.5503
57.587,-4.30146,-8.74662,-0.143697,-5.85938,-57.6782,-23.7427
57.592,-4.21524,-8.85678,-0.0670612,-6.5918,-58.2886,-20.9351
57.596,-4.13859,-9.03401,-0.100592,-7.32422,-58.96,-18.2495
57.602,-4.01884,-9.21603,-0.105379,-7.87354,-59.4482,-15.625
57.606,-3.93741,-9.35974,-0.13891,-8.30078,-59.8144,-12.6953
57.612,-3.90868,-9.49385,-0.105379,-8.60596,-59.9976,-9.94873
57.617,-3.92784,-9.64235,-0.0862201,-9.33838,-59.8144,-7.56836
57.622,-3.95178,-9.84353,-0.0814328,-10.2539,-59.7534,-5.37109
57.627,-4.05716,-10.0256,-0.0718484,-10.9863,-59.8755,-3.72314
57.632,-4.09069,-10.1884,-0.0191589,-11.8408,-60.4248,-2.01416
57.637,-4.14338,-10.3321,-0.0191589,-12.5122,-61.2183,-0.427246
57.642,-4.25834,-10.4854,-0.00478728,-13.0615,-62.1948,1.09863
57.647,-4.28229,-10.5812,0.0431149,-13.4277,-63.1714,2.44141
57.653,-4.29188,-10.7105,0.0383179,-13.6719,-64.1479,3.66211
57.658,-4.32541,-10.8159,0.00478728,-14.0381,-64.8804,4.63867
57.663,-4.34456,-10.8686,-0.00478728,-14.4043,-65.3687,5.67627
57.668,-4.36372,-10.9165,-0.0431149,-14.6484,-65.918,6.83594
57.673,-4.33978,-10.9165,-0.0766455,-14.8926,-66.2231,8.05664
57.678,-4.32062,-10.9357,-0.0622739,-15.3809,-66.3452,9.0332
57.683,-4.30146,-11.0363,-0.119751,-15.9302,-66.6504,10.0708
57.689,-4.25834,-11.0937,-0.186812,-16.2964,-66.8335,10.9863
57.694,-4.22481,-11.1656,-0.277819,-16.7236,-66.9556,11.7187
57.699,-4.18171,-11.271,-0.368836,-17.2119,-67.2607,12.3291
57.704,-4.17691,-11.4003,-0.469428,-17.7002,-67.9321,12.6343
57.709,-4.24397,-11.6111,-0.479003,-18.2495,-68.7866,12.7563
57.714,-4.25356,-11.8027,-0.502959,-18.7988,-70.0684,12.7563
57.719,-4.30625,-11.9991,-0.536489,-19.104,-71.8384,12.8174
57.724,-4.41163,-12.1475,-0.522118,-19.165,-73.9136,12.7563
57.73,-4.49785,-12.3104,-0.522118,-19.043,-76.2329,12.7563
57.735,-4.52659,-12.3391,-0.426313,-18.6768,-79.0405,12.9395
57.74,-4.68466,-12.32,-0.383208,-18.3716,-82.1533,13.0615
57.745,-4.75651,-12.2864,-0.340093,-18.1274,-85.144,13.3057
57.75,-4.8571,-12.229,-0.282616,-17.9443,-88.3789,13.4277
57.755,-4.95769,-12.1763,-0.239501,-17.7612,-91.9189,13.3667
57.76,-4.95769,-12.0901,-0.205971,-17.395,-95.3979,13.7329
57.765,-5.03434,-11.9847,-0.177227,-17.1509,-99.0601,14.1602
57.771,-5.12056,-11.8362,-0.134122,-16.9067,-102.6,14.6484
57.776,-5.23551,-11.6925,-0.100592,-16.6626,-106.445,15.3198
57.781,-5.35047,-11.5488,-0.134122,-15.9912,-111.023,15.9302
57.786,-5.39837,-11.3668,-0.177227,-14.8926,-115.906,17.2729
57.791,-5.384,-11.1416,-0.13891,-13.5498,-120.422,19.4092
57.796,-5.31215,-10.9165,-0.119751,-12.146,-124.268,21.8506
57.801,-5.19719,-10.6722,-0.191599,-10.8032,-127.869,24.4751
57.806,-5.10618,-10.4662,-0.22513,-9.46045,-130.92,27.2217
57.811,-4.95769,-10.2507,-0.205971,-8.05664,-133.423,30.3955
57.817,-4.74693,-10.0447,-0.239501,-6.83594,-135.864,33.6304
57.821,-4.48347,-9.96807,-0.229927,-5.5542,-137.756,36.8042
57.827,-4.24876,-9.97765,-0.320934,-3.96728,-139.16,40.1001
57.831,-4.05716,-10.0016,-0.383208,-2.2583,-139.771,43.1519
57.837,-3.8464,-10.0447,-0.512533,-0.549316,-139.648,46.1426
57.842,-3.69791,-10.1405,-0.637071,1.52588,-139.282,49.0112
57.846,-3.61169,-10.3273,-0.704132,3.78418,-138.733,51.2085
57.852,-3.48715,-10.4902,-0.780778,6.71387,-137.634,53.7109
57.856,-3.20932,-10.6339,-0.82868,10.0708,-135.681,56.7627
57.862,-3.05604,-10.7967,-0.924475,13.1836,-132.874,59.082
57.866,-3.11831,-10.9021,-0.996333,15.686,-129.944,60.3638
57.872,-3.29555,-11.0889,-1.04902,17.6392,-127.258,61.8896
57.876,-3.46799,-11.3859,-1.09691,19.5312,-125.122,63.0493
57.881,-3.47278,-11.6829,-1.12087,21.9116,-124.084,63.2935
57.887,-3.44883,-11.9032,-1.1065,24.9023,-123.413,63.4155
57.891,-3.43446,-12.0948,-1.18314,28.5645,-122.559,63.4155
57.897,-3.42488,-12.2194,-1.20709,32.2876,-121.826,63.5376
57.901,-3.50631,-12.3775,-1.18314,35.5225,-121.094,63.4155
57.907,-3.49673,-12.4589,-1.22146,38.6353,-119.995,63.2324
57.911,-3.49673,-12.4828,-1.24062,41.687,-118.347,63.3545
57.917,-3.45841,-12.4445,-1.26457,44.1894,-116.028,63.5986
57.922,-3.44404,-12.4206,-1.29331,46.2036,-112.793,63.7817
57.927,-3.38177,-12.3727,-1.32205,47.9126,-109.009,63.9648
57.932,-3.32429,-12.3152,-1.346,49.4385,-104.736,64.209
57.936,-3.26202,-12.2194,-1.37953,50.7202,-100.22,64.4531
57.942,-3.24765,-12.1523,-1.44659,51.5137,-95.9473,64.8804
57.946,-3.14227,-12.0517,-1.48491,52.2461,-91.7358,65.3076
57.952,-3.08957,-11.9464,-1.52803,52.7344,-87.2803,65.8569
57.956,-3.03688,-11.817,-1.50407,53.0395,-82.5806,66.6504
57.962,-3.03688,-11.6685,-1.48491,53.1006,-77.8198,67.4438
57.967,-2.99378,-11.5536,-1.5376,52.9785,-73.1812,68.2983
57.971,-2.97462,-11.3572,-1.48012,52.8564,-68.2373,69.397
57.977,-3.00815,-11.1799,-1.48012,52.4902,-63.4766,70.7397
57.981,-2.99856,-10.9788,-1.44659,51.9409,-59.021,71.9604
57.987,-3.01294,-10.7872,-1.40827,51.2695,-55.1147,73.3643
57.991,-3.01772,-10.586,-1.42265,50.415,-51.5747,74.9512
57.997,-2.94109,-10.3752,-1.43701,49.6216,-48.4009,76.4771
58.001,-2.8884,-10.1836,-1.37474,48.645,-45.2881,78.125
58.006,-2.86444,-9.95849,-1.40827,47.4853,-42.1143,79.6509
58.012,-2.80696,-9.77647,-1.38432,46.1426,-39.1235,81.1157
58.017,-2.78781,-9.63277,-1.35559,44.7388,-36.0718,82.5806
58.022,-2.77343,-9.44596,-1.38912,43.0908,-33.02,84.0454
58.026,-2.75906,-9.31663,-1.43701,41.4429,-30.3955,85.3271
58.032,-2.78781,-9.15856,-1.46096,39.7949,-27.9541,86.4868
58.036,-2.80696,-9.05318,-1.45138,38.147,-26.062,87.4634
58.042,-2.79738,-8.91906,-1.40827,36.377,-24.5361,88.3179
58.047,-2.78301,-8.80888,-1.43701,34.668,-23.1323,89.1113
58.052,-2.75906,-8.6556,-1.40827,33.2031,-22.2168,89.6606
58.057,-2.75428,-8.5598,-1.41785,31.6162,-21.5454,90.0879
58.061,-2.80218,-8.49274,-1.41306,29.9683,-21.0571,90.21
58.067,-2.80696,-8.37299,-1.41306,28.3813,-21.1182,90.0879
58.071,-2.84528,-8.30113,-1.41306,26.6724,-21.4233,89.7827
58.077,-2.85965,-8.2245,-1.39869,25.2075,-21.9116,89.2944
58.081,-2.86444,-8.15265,-1.37474,23.4985,-22.8882,88.623
58.087,-2.87881,-8.13349,-1.34121,21.8506,-24.0479,87.7685
58.092,-2.89318,-8.05685,-1.33163,20.2637,-25.4517,86.9751
58.096,-2.94109,-8.00416,-1.32684,18.7378,-26.7944,85.8154
58.102,-2.91234,-7.97541,-1.2981,17.1509,-28.3203,84.4116
58.106,-2.87881,-7.90356,-1.28373,15.686,-29.8462,83.0078
58.112,-2.84528,-7.93231,-1.23583,14.1602,-31.311,81.543
58.116,-2.83091,-7.87003,-1.2502,12.6953,-32.7148,79.7729
58.122,-2.79259,-7.87482,-1.2502,11.4136,-34.0576,77.7588
58.126,-2.76385,-7.85566,-1.22625,10.0708,-35.2783,75.6836
58.131,-2.68721,-7.85087,-1.26457,8.91113,-36.2549,73.5474
58.137,-2.62494,-7.85566,-1.28852,7.50732,-36.9873,71.228
58.141,-2.57225,-7.81734,-1.30768,6.22558,-37.4146,68.9087
58.147,-2.5004,-7.75507,-1.29331,5.31006,-37.4756,66.4673
58.151,-2.46208,-7.7934,-1.28373,4.21143,-37.4146,63.7207
58.157,-2.42855,-7.79818,-1.23104,3.05176,-36.9873,60.791
58.161,-2.40939,-7.77903,-1.21188,2.07519,-36.438,57.9224
58.166,-2.41418,-7.75987,-1.18314,1.0376,-35.7056,54.9927
58.172,-2.4046,-7.75507,-1.14961,0.183105,-34.9731,51.9409
58.177,-2.46687,-7.71196,-1.08734,-0.793457,-33.9966,48.8281
58.182,-2.49561,-7.66406,-1.03944,-2.01416,-33.1421,45.5322
58.186,-2.56746,-7.65448,-0.886157,-3.35693,-32.3486,42.4805
58.192,-2.53393,-7.68322,-0.866998,-4.45557,-31.4331,39.4287
58.196,-2.50519,-7.77903,-0.814308,-5.5542,-30.2734,36.1328
58.202,-2.50519,-7.81734,-0.737663,-6.5918,-29.1748,33.0811
58.206,-2.47645,-7.88919,-0.74246,-7.44629,-27.71,30.0293
58.212,-2.46687,-7.94188,-0.809521,-8.30078,-26.1841,27.0386
58.217,-2.46208,-7.98978,-0.804724,-9.27734,-24.7192,23.9868
58.222,-2.46208,-8.15744,-0.809521,-10.376,-23.5596,20.9351
58.227,-2.37586,-8.32988,-0.82868,-11.1084,-22.4609,18.1885
58.232,-2.33275,-8.46879,-0.910103,-11.5967,-21.3013,15.3809
58.237,-2.31359,-8.61728,-0.890944,-11.9629,-20.0195,12.8784
58.242,-2.2561,-8.76098,-0.890944,-12.207,-18.6157,10.1929
58.247,-2.15552,-8.95259,-0.991536,-12.5122,-16.7847,7.62939
58.252,-2.10762,-9.15376,-1.02985,-12.8784,-14.7705,4.76074
58.258,-2.03577,-9.38369,-1.08255,-13.0005,-12.146,2.13623
58.263,-1.97828,-9.62798,-1.12087,-13.1836,-9.27734,-0.610352
58.268,-1.96391,-9.84353,-1.16877,-13.3667,-5.79834,-3.41797
58.273,-1.94475,-10.0447,-1.21667,-13.7329,-2.07519,-6.04248
58.278,-1.93518,-10.2267,-1.24541,-14.0991,1.64795,-8.78906
58.283,-2.00224,-10.3992,-1.21667,-14.7095,5.37109,-11.7187
58.288,-2.00703,-10.5716,-1.24541,-15.686,9.15527,-14.6484
58.293,-2.07409,-10.6962,-1.19751,-16.6626,12.6953,-17.334
58.299,-2.08366,-10.7632,-1.10171,-17.8223,16.1133,-20.0806
58.304,-2.11241,-10.8063,-1.01549,-19.165,19.3481,-23.0103
58.309,-2.14115,-10.8542,-0.958005,-20.874,22.4609,-26.2451
58.314,-2.2561,-10.9452,-0.862211,-22.8882,25.2075,-29.6631
58.319,-2.3088,-11.0889,-0.761619,-25.3296,27.5879,-33.3862
58.324,-2.41418,-11.2853,-0.737663,-27.9541,29.48,-37.2314
58.329,-2.48124,-11.4721,-0.651443,-30.3345,30.8838,-40.8936
58.335,-2.57704,-11.5392,-0.546064,-32.7148,31.6772,-44.6167
58.34,-2.67284,-11.5248,-0.368836,-35.0952,32.0435,-48.2178
58.345,-2.77822,-11.5153,-0.13891,-37.7197,31.9214,-51.6968
58.35,-2.80696,-11.4865,0.0143716,-40.5273,31.3721,-55.4199
58.355,-2.86444,-11.4674,0.143697,-43.0908,30.5786,-59.2651
58.36,-2.86923,-11.5248,0.244289,-45.7153,29.541,-63.0493
58.365,-2.90276,-11.5919,0.273032,-48.584,28.4424,-67.1997
58.37,-2.9315,-11.7021,0.364039,-51.3306,27.2217,-71.2891
58.376,-2.9794,-11.8074,0.402367,-54.0771,26.001,-75.5615
58.381,-3.07041,-11.8889,0.526905,-56.7627,24.231,-79.7119
58.386,-3.24765,-11.9224,0.747247,-59.5093,22.0947,-83.7402
58.391,-3.37219,-11.9272,0.910103,-62.0117,19.5312,-87.5854
58.396,-3.61648,-11.8937,1.09213,-64.209,16.0522,-91.2476
58.401,-3.82245,-11.7643,1.26936,-66.2842,12.146,-94.5434
58.406,-3.91346,-11.5967,1.46096,-68.3594,8.23975,-97.168
58.411,-3.9949,-11.3284,1.6334,-70.1904,4.02832,-99.4263
58.417,-4.05237,-11.0602,1.74357,-71.4722,-0.061035,-101.013
58.422,-4.12422,-10.6962,1.80584,-72.2046,-4.08936,-101.807
58.427,-4.06675,-10.2746,1.84416,-72.7539,-7.56836,-101.99
58.432,-3.99968,-9.86269,1.86812,-73.4253,-10.6201,-101.685
58.436,-3.85119,-9.49865,1.90165,-74.2798,-12.8784,-101.013
58.442,-3.68833,-9.1825,1.94475,-75.2563,-14.4043,-99.9756
58.446,-3.61169,-8.98612,2.12678,-76.355,-15.625,-98.8159
58.452,-3.52547,-8.94779,2.32316,-78.186,-16.9678,-97.9004
58.456,-3.40572,-9.01006,2.07888,-78.9185,-18.1274,-96.9238
58.462,-3.28597,-9.03881,2.04056,-78.5522,-18.9209,-95.0317
58.467,-3.15663,-9.01006,2.07409,-78.0029,-19.5312,-92.4072
58.471,-3.05604,-8.95737,2.05493,-77.4536,-19.7754,-89.9048
58.477,-2.9315,-8.97175,2.01182,-77.0874,-19.7754,-87.8906
58.481,-2.87881,-9.02922,1.9735,-76.4771,-19.7754,-85.5102
58.487,-2.79259,-9.12981,1.93038,-75.5005,-19.7144,-83.1299
58.491,-2.75906,-9.26394,1.84416,-74.2188,-19.5923,-80.6274
58.497,-2.67763,-9.44116,1.74357,-72.6929,-19.165,-78.064
58.501,-2.63452,-9.64713,1.67172,-70.8008,-18.6768,-75.9888
58.506,-2.61537,-9.9058,1.50407,-68.4204,-17.7612,-74.1577
58.512,-2.60099,-10.1693,1.33642,-65.918,-16.6016,-72.6929
58.516,-2.57704,-10.495,1.21188,-62.9272,-15.1978,-71.3501
58.522,-2.53393,-10.8303,1.02028,-59.1431,-13.6108,-69.8853
58.526,-2.63452,-11.1129,0.876573,-54.5654,-11.8408,-68.3594
58.532,-2.72553,-11.3668,0.766406,-49.4385,-9.39941,-66.8335
58.536,-2.85965,-11.5823,0.704132,-43.7622,-6.40869,-65.6128
58.541,-2.94587,-11.7356,0.613125,-37.9639,-3.72314,-64.3921
58.547,-2.94587,-11.8362,0.574807,-31.7993,-1.70898,-62.9272
58.552,-2.94587,-11.8745,0.579594,-25.5127,-0.305176,-61.1572
58.557,-3.03209,-11.8458,0.589179,-19.165,0.793457,-59.2651
58.561,-3.05125,-11.817,0.637071,-12.6343,2.44141,-57.312
58.567,-2.99378,-11.7069,0.670602,-6.04248,4.45557,-55.0537
58.571,-2.86444,-11.4242,0.88137,0.12207,6.5918,-52.6733
58.577,-2.58184,-11.2183,0.962802,5.5542,8.78906,-50.1099
58.581,-2.44292,-11.0027,0.536489,10.2539,11.0474,-47.2412
58.587,-2.45729,-10.8638,0.445472,14.8926,15.8691,-43.6401
58.592,-2.1651,-10.7009,0.958005,21.7285,24.5361,-40.2222
58.596,-1.65256,-10.313,1.43701,29.1138,36.3159,-36.6211
58.602,-1.4897,-9.96328,1.51844,32.7759,49.5605,-33.0811
58.606,-1.825,-9.81958,1.44659,32.7759,61.8896,-29.1138
58.612,-2.32796,-9.65193,1.36995,32.2266,71.4722,-24.6582
58.616,-2.8405,-9.38369,1.33642,31.7993,77.3315,-20.4468
58.622,-3.20932,-9.15376,1.25978,30.6396,78.9795,-17.395
58.627,-3.44404,-8.93343,1.17356,28.5645,77.0264,-15.1367
58.632,-3.6548,-8.80888,1.08734,26.062,72.876,-13.9771
58.637,-3.72665,-8.72266,0.938846,23.9868,67.8101,-13.6719
58.642,-3.62606,-8.61249,0.900529,22.4609,63.1714,-13.3057
58.647,-3.50631,-8.56459,0.972377,20.9961,60.1196,-13.0615
58.652,-3.37219,-8.61249,1.05381,19.4702,59.021,-12.9395
58.658,-3.30513,-8.63165,1.13045,17.8833,60.0586,-13.0615
58.663,-3.35303,-8.7035,1.24062,15.9302,62.3779,-13.3667
58.668,-3.48235,-8.75619,1.32205,14.1602,65.5518,-13.0615
58.673,-3.65001,-8.77056,1.3939,12.2681,68.7256,-12.6953
58.678,-3.90388,-8.83284,1.44659,10.2539,71.167,-12.5122
58.683,-4.06196,-8.87594,1.40827,8.17871,72.0215,-12.7563
58.688,-4.16734,-8.88073,1.38432,6.04248,71.4722,-13.3057
58.693,-4.21524,-8.87594,1.3029,4.15039,69.8242,-13.916
58.699,-4.21524,-8.86637,1.17356,2.31934,67.1387,-14.5874
58.704,-4.2344,-8.84241,1.11129,0.610352,63.7817,-15.564
58.709,-4.25834,-8.83284,1.00591,-1.15967,59.8144,-16.8457
58.714,-4.30146,-8.82804,0.924475,-2.92969,55.481,-18.3105
58.719,-4.32541,-8.83762,0.799937,-4.39453,51.0254,-19.8364
58.724,-4.36852,-8.82325,0.704132,-5.7373,46.4477,-21.2402
58.729,-4.38288,-8.81846,0.531692,-6.95801,41.5649,-22.7051
58.734,-4.38288,-8.78972,0.407154,-8.05664,36.8042,-24.1699
58.74,-4.44516,-8.78972,0.383208,-9.0332,32.1655,-25.6958
58.745,-4.49785,-8.86157,0.34488,-10.1929,27.1606,-27.4048
58.75,-4.54575,-8.943,0.239501,-11.3525,21.9116,-29.2969
58.755,-4.54575,-9.05797,0.210758,-12.2681,16.4185,-31.0669
58.76,-4.59365,-9.1346,0.229927,-12.9395,10.376,-32.4707
58.765,-4.6176,-9.14419,0.22513,-13.4888,4.27246,-33.6304
58.77,-4.65113,-9.12981,0.244289,-13.916,-1.64795,-34.79
58.775,-4.6655,-9.14419,0.287404,-14.7095,-7.69043,-35.9497
58.78,-4.68944,-9.12503,0.335306,-15.5029,-13.7329,-36.9263
58.786,-4.69424,-9.17293,0.349677,-16.1133,-19.4702,-37.5977
58.791,-4.73256,-9.16334,0.421526,-16.7847,-24.9023,-38.147
58.796,-4.69903,-9.15856,0.507746,-17.7612,-30.0293,-38.3301
58.801,-4.69424,-9.14897,0.603541,-18.7988,-34.9121,-38.3301
58.806,-4.7134,-9.17293,0.665815,-19.7754,-39.4287,-38.3911
58.811,-4.73256,-9.21603,0.65624,-20.874,-43.7622,-38.5132
58.816,-4.77088,-9.23999,0.689771,-21.7285,-48.0347,-38.5132
58.821,-4.72777,-9.24956,0.756822,-22.3999,-51.8188,-37.9639
58.827,-4.74213,-9.28788,0.823883,-23.4375,-55.2368,-37.3535
58.831,-4.76609,-9.34057,0.857414,-24.7192,-58.5937,-36.9873
58.837,-4.7613,-9.47949,0.857414,-25.9399,-61.9507,-36.6211
58.842,-4.7613,-9.64713,0.88137,-26.6724,-65.3076,-35.8887
58.846,-4.74213,-9.69983,0.919687,-27.2217,-68.5425,-34.79
58.852,-4.68944,-9.7621,0.948431,-27.71,-71.6553,-33.7524
58.856,-4.65113,-9.8579,1.04902,-28.1982,-74.5239,-32.8369
58.862,-4.68944,-9.96807,1.09691,-28.6255,-77.3315,-31.7383
58.866,-4.66071,-10.0639,1.13524,-28.9307,-80.1392,-30.8228
58.872,-4.60802,-10.1501,1.18793,-29.0527,-82.8247,-29.8462
58.876,-4.57928,-10.2555,1.18793,-28.9917,-85.083,-28.4424
58.881,-4.55054,-10.2842,1.23583,-28.7476,-86.9141,-26.9165
58.887,-4.49306,-10.3177,1.17835,-28.2593,-88.0737,-25.3296
58.891,-4.37331,-10.3656,1.08255,-27.6489,-88.4399,-23.4375
58.897,-4.32062,-10.3656,1.01069,-26.7944,-88.0737,-21.3623
58.901,-4.25356,-10.404,0.847839,-25.8179,-86.853,-19.043
58.907,-4.11465,-10.4183,0.661027,-24.5972,-85.083,-16.6626
58.911,-4.01406,-10.4902,0.522118,-23.3765,-82.5806,-14.3433
58.917,-3.9422,-10.5764,0.354465,-22.2168,-79.7119,-12.085
58.922,-3.88472,-10.6914,0.205971,-20.874,-76.4771,-9.82666
58.927,-3.86556,-10.8494,0.13891,-19.5312,-73.1201,-7.56836
58.932,-3.81766,-11.0363,0,-17.8833,-69.8853,-5.37109
58.936,-3.8464,-11.2135,-0.0239462,-16.1133,-66.8335,-3.11279
58.942,-3.83682,-11.429,-0.0814328,-14.1602,-64.0869,-0.976562
58.946,-3.91825,-11.6398,-0.124538,-12.3901,-61.5234,1.15967
58.952,-3.94699,-11.8506,-0.114963,-10.498,-59.2041,3.11279
58.956,-3.9901,-12.114,-0.0814328,-8.72803,-57.5561,4.94385
58.962,-4.09548,-12.3775,-0.0814328,-7.14111,-56.2744,6.53076
58.967,-4.20565,-12.6409,-0.0383179,-5.92041,-55.542,7.93457
58.971,-4.31582,-12.89,0.0143716,-4.57764,-55.542,9.15527
58.977,-4.47869,-13.1056,0.0622739,-3.17383,-56.3965,10.2539
58.981,-4.65591,-13.2636,0.162866,-1.77002,-57.8003,11.2915
58.987,-4.80441,-13.3977,0.253873,-0.610352,-59.6924,12.3291
58.991,-4.91458,-13.4792,0.364039,0.732422,-62.1338,13.4888
58.997,-5.0008,-13.46,0.426313,2.19727,-64.7583,14.7095
59.001,-5.14929,-13.3546,0.474215,3.60107,-67.0776,15.8081
59.006,-5.23551,-13.2109,0.48379,4.76074,-69.3359,17.1509
59.012,-5.30257,-13.0672,0.464631,5.5542,-71.5332,18.5547
59.016,-5.34568,-12.8756,0.411942,5.92041,-73.9746,19.9585
59.022,-5.40316,-12.7319,0.383208,6.28662,-76.5381,21.2402
59.027,-5.39359,-12.6074,0.31135,6.7749,-79.5288,22.644
59.032,-5.35526,-12.4924,0.191599,7.26318,-82.8247,24.5361
59.037,-5.26425,-12.2817,0.124538,8.30078,-85.6934,26.9165
59.042,-5.02475,-12.0278,0.0718484,9.52148,-88.0737,29.6631
59.047,-4.78046,-11.7883,-0.0670612,10.7422,-89.8437,32.5317
59.052,-4.64155,-11.5248,-0.17244,11.9019,-91.1255,35.5225
59.057,-4.51222,-11.2231,-0.205971,12.9395,-92.2241,38.4521
59.063,-4.38288,-10.9836,-0.273032,13.6108,-93.1396,41.1377
59.068,-4.28709,-10.792,-0.330509,14.2822,-94.2383,43.8232
59.073,-4.2296,-10.6291,-0.392783,15.0757,-95.8862,45.9595
59.078,-4.16734,-10.5477,-0.426313,16.1133,-97.9614,47.9126
59.083,-4.10985,-10.4998,-0.407154,17.6392,-100.464,49.4995
59.088,-4.13859,-10.3704,-0.536489,19.9585,-104.004,50.293
59.093,-3.99968,-10.2555,-0.459844,22.1558,-108.215,50.7812
59.098,-3.73144,-10.2363,-0.411942,23.6816,-112.366,52.124
59.103,-3.51588,-10.2411,-0.368836,24.9023,-115.112,53.3447
59.109,-3.43446,-10.2363,-0.39757,25.5127,-116.333,54.4434
59.114,-3.4153,-10.2603,-0.502959,26.123,-117.432,54.8706
59.119,-3.4153,-10.1693,-0.488587,27.6489,-118.347,55.1758
59.124,-3.3195,-10.1309,-0.359252,28.6865,-118.286,56.4575
59.129,-3.23807,-10.1213,-0.287404,29.0527,-116.577,57.7393
59.134,-3.22849,-10.1645,-0.196396,28.9307,-113.281,57.8613
59.139,-3.3626,-10.3082,-0.167653,28.9917,-109.436,57.5561
59.144,-3.559,-10.4998,-0.277819,30.0903,-107.117,56.8237
59.15,-3.64043,-10.6099,-0.349677,32.2876,-107.178,56.1523
59.155,-3.63564,-10.677,-0.378411,35.1562,-108.887,55.4199
59.16,-3.56379,-10.7776,-0.469428,37.7808,-111.267,54.6875
59.165,-3.46319,-10.8255,-0.560435,39.978,-113.22,53.833
59.17,-3.39613,-10.8542,-0.598753,41.626,-114.136,52.9785
59.175,-3.28597,-10.8734,-0.708929,42.8467,-113.464,52.3071
59.18,-3.26681,-10.8926,-0.871785,44.0063,-111.816,52.0019
59.185,-3.24765,-10.8878,-0.948431,45.166,-109.253,51.5747
59.191,-3.25244,-10.8638,-1.01069,46.6309,-106.323,51.1475
59.196,-3.25244,-10.8494,-1.11129,48.0957,-103.149,50.7202
59.201,-3.19496,-10.7967,-1.16877,49.6216,-99.9756,50.415
59.206,-3.18059,-10.7441,-1.22625,50.9033,-96.8628,50.2319
59.211,-3.13269,-10.6818,-1.24062,51.9409,-93.8721,50.1099
59.216,-3.05125,-10.5812,-1.33163,53.2837,-91.0644,50.1709
59.221,-3.08478,-10.4519,-1.32205,54.3823,-88.3179,50.354
59.227,-3.02251,-10.3513,-1.346,55.3589,-85.5713,50.7812
59.231,-2.95066,-10.2172,-1.37953,56.3965,-82.7026,51.4526
59.237,-2.86923,-10.0734,-1.42265,57.1289,-79.7119,52.3682
59.241,-2.85965,-9.88185,-1.40348,57.9224,-76.4771,53.5889
59.247,-2.8405,-9.72378,-1.40348,58.2886,-73.2422,54.8706
59.251,-2.78301,-9.57529,-1.42743,58.4717,-70.1294,56.0913
59.256,-2.7399,-9.45554,-1.45138,58.7769,-67.0166,57.4951
59.262,-2.692,-9.32621,-1.43701,58.5327,-64.0259,59.082
59.266,-2.62015,-9.18729,-1.40348,58.2886,-60.73,60.6079
59.272,-2.61057,-9.08671,-1.3939,57.8003,-57.312,62.1338
59.276,-2.55788,-9.01006,-1.3939,57.251,-53.833,63.6597
59.282,-2.56267,-8.91426,-1.41306,56.5186,-50.4761,64.7583
59.286,-2.56746,-8.83762,-1.36516,55.603,-47.1802,65.918
59.292,-2.58184,-8.79931,-1.33642,54.5654,-44.0674,66.8335
59.297,-2.62973,-8.79451,-1.28852,53.4668,-41.1987,67.688
59.302,-2.62015,-8.73224,-1.27415,52.1851,-38.3911,68.2373
59.307,-2.71595,-8.7035,-1.25978,50.9644,-36.1328,68.9087
59.311,-2.71116,-8.69392,-1.22146,49.8047,-33.8745,69.397
59.317,-2.71595,-8.66518,-1.17356,48.645,-31.7383,69.7632
59.321,-2.76865,-8.62686,-1.17356,47.4853,-29.7241,69.9463
59.327,-2.81175,-8.61249,-1.14961,46.0815,-28.0151,69.8853
59.331,-2.82134,-8.59333,-1.14961,44.5557,-26.6113,69.7632
59.337,-2.85487,-8.62686,-1.23104,43.1519,-25.2075,69.397
59.342,-2.8836,-8.64602,-1.22625,41.9922,-23.7427,68.8477
59.346,-2.9315,-8.66997,-1.25499,40.7715,-22.522,68.2983
59.352,-2.95546,-8.6604,-1.3029,39.3066,-21.2402,67.5659
59.356,-2.97462,-8.68434,-1.31247,37.9028,-19.9585,66.7114
59.362,-2.98899,-8.66518,-1.25499,36.438,-18.6157,65.979
59.366,-2.97462,-8.64602,-1.25499,34.9121,-17.395,65.3687
59.372,-2.9794,-8.60291,-1.2981,33.6304,-15.9912,64.6362
59.376,-2.95066,-8.5119,-1.28373,32.2266,-14.6484,63.8428
59.381,-2.91234,-8.44484,-1.23104,30.8838,-13.3667,63.4155
59.387,-2.89797,-8.39215,-1.27415,29.6631,-11.9019,62.8052
59.391,-2.77343,-8.28197,-1.36995,28.5034,-10.0708,62.3779
59.397,-2.70637,-8.21013,-1.40348,27.1606,-7.99561,61.8896
59.401,-2.66806,-8.21971,-1.39869,25.5737,-5.92041,61.2793
59.407,-2.63452,-8.21971,-1.44181,23.8647,-3.90625,60.3638
59.411,-2.60099,-8.30593,-1.46575,22.1558,-2.13623,59.6313
59.417,-2.5962,-8.36819,-1.38912,20.4468,-0.793457,58.8379
59.422,-2.6489,-8.51669,-1.2981,18.4326,0.366211,57.8003
59.427,-2.67284,-8.72266,-1.18314,16.3574,1.0376,56.8237
59.432,-2.6441,-8.95737,-1.10171,14.6484,1.58691,55.4199
59.437,-2.63931,-9.12024,-1.05381,13.3667,1.95312,54.4434
59.442,-2.62015,-9.18729,-1.08734,12.3901,2.38037,53.6499
59.447,-2.52915,-9.14419,-1.10171,11.5967,3.23486,52.9785
59.452,-2.52915,-9.07712,-1.04902,10.498,4.21143,52.1851
59.457,-2.56267,-9.04838,-0.96759,8.78906,5.31006,50.8423
59.462,-2.5962,-9.08191,-0.876573,6.5918,6.16455,49.3164
59.467,-2.57704,-9.14419,-0.847839,4.69971,6.83594,47.9126
59.473,-2.57704,-9.1394,-0.799937,3.23486,7.20215,46.5088
59.478,-2.53393,-9.03401,-0.799937,1.95312,7.87354,45.5322
59.483,-2.46687,-8.93821,-0.775991,0.854492,8.72803,44.2505
59.488,-2.41897,-8.91906,-0.718504,-0.610352,9.8877,42.6636
59.493,-2.36628,-8.93343,-0.761619,-2.19727,11.5356,40.7715
59.498,-2.29443,-9.03401,-0.756822,-3.72314,13.4888,38.8184
59.503,-2.31838,-9.14897,-0.732876,-5.43213,15.4419,36.8042
59.508,-2.32316,-9.23999,-0.780778,-6.89697,17.0898,34.668
59.514,-2.37586,-9.35016,-0.775991,-8.42285,18.6157,32.7148
59.519,-2.31838,-9.43638,-0.809521,-9.39941,19.8975,30.7007
59.524,-2.29443,-9.49865,-0.862211,-10.498,21.1792,28.4424
59.529,-2.26569,-9.58008,-0.886157,-11.6577,22.644,26.1841
59.534,-2.213,-9.69504,-0.866998,-13.1836,23.9868,23.6206
59.539,-2.23694,-9.90101,-0.88137,-14.8926,25.2686,20.6909
59.544,-2.24174,-10.1261,-0.871785,-16.8457,26.3061,17.5171
59.55,-2.2609,-10.3561,-0.819096,-18.5547,27.1606,14.0991
59.555,-2.28485,-10.5525,-0.766406,-20.0806,27.5269,10.6201
59.56,-2.28006,-10.7488,-0.737663,-21.4844,27.8931,7.14111
59.565,-2.28006,-10.8734,-0.699345,-23.0713,28.0762,3.2959
59.57,-2.33275,-10.9644,-0.574807,-24.7192,28.2593,-0.793457
59.575,-2.3088,-11.1225,-0.512533,-26.6113,28.4424,-4.94385
59.58,-2.31838,-11.1991,-0.421526,-28.8696,28.6865,-9.27734
59.585,-2.35191,-11.3332,-0.320934,-30.8838,28.9917,-13.916
59.591,-2.33754,-11.4099,-0.229927,-33.0811,29.4189,-18.8599
59.596,-2.38065,-11.5057,-0.153281,-35.4614,30.0903,-23.9258
59.601,-2.49561,-11.5679,0.0335306,-37.9028,30.6396,-29.2358
59.606,-2.68243,-11.5392,0.186812,-40.4663,31.1279,-34.6069
59.611,-2.79259,-11.5009,0.335306,-43.2739,31.311,-39.856
59.616,-2.90276,-11.4147,0.603541,-46.0815,31.0669,-45.0439
59.621,-3.03688,-11.2901,0.819096,-48.8892,30.4565,-49.8657
59.626,-3.10874,-11.0698,1.02507,-51.4526,29.6631,-54.5044
59.631,-3.22849,-10.8494,1.22146,-53.9551,28.6255,-58.96
59.637,-3.34344,-10.5956,1.41306,-56.3354,27.3437,-63.2324
59.641,-3.40093,-10.313,1.59987,-58.6548,25.6958,-66.9556
59.647,-3.43925,-10.0303,1.67172,-60.5469,23.6816,-69.8853
59.651,-3.39613,-9.72378,1.72921,-62.0117,21.7895,-72.3877
59.657,-3.40093,-9.40763,1.79147,-62.8052,19.9585,-74.2188
59.661,-3.39613,-9.0915,1.91122,-63.7207,18.5547,-75.5005
59.667,-3.33866,-8.83284,1.78669,-64.27,17.7002,-76.6602
59.672,-3.13269,-8.44963,1.60466,-64.27,17.7002,-77.0264
59.677,-3.01772,-8.11432,1.53281,-64.8193,18.1274,-76.6602
59.682,-2.99378,-7.89878,1.43222,-65.0635,19.4092,-76.5381
59.686,-2.91234,-7.70718,1.37953,-65.6128,20.752,-76.7822
59.692,-2.86923,-7.57784,1.31247,-66.4673,22.2168,-77.2705
59.696,-2.85487,-7.52037,1.27894,-67.4438,23.0103,-77.6978
59.702,-2.8884,-7.5539,1.28373,-68.4814,23.2544,-77.6367
59.706,-2.89797,-7.63053,1.28373,-68.9697,22.8271,-77.3315
59.712,-2.9315,-7.70718,1.30768,-69.0918,21.6064,-77.2095
59.717,-3.01294,-7.89399,1.36995,-69.2139,19.8975,-77.2095
59.721,-3.06563,-8.11432,1.44181,-69.2139,17.2119,-77.3926
59.727,-3.15185,-8.40652,1.48491,-69.1528,13.7329,-77.5146
59.731,-3.28118,-8.74182,1.56156,-68.6035,9.82666,-77.7588
59.737,-3.41051,-9.0915,1.59029,-67.8101,4.94385,-78.0029
59.741,-3.44883,-9.44596,1.60946,-66.8945,-0.183105,-78.3691
59.747,-3.53026,-9.84832,1.61903,-65.4907,-5.43213,-78.7964
59.751,-3.49194,-10.1836,1.5855,-63.9038,-10.8032,-79.1626
59.756,-3.47757,-10.495,1.45618,-61.9507,-15.7471,-79.3457
59.762,-3.42009,-10.8015,1.30768,-59.9976,-20.1416,-79.6509
59.766,-3.40572,-11.0794,1.08734,-57.6172,-23.8647,-79.895
59.772,-3.37219,-11.3716,0.938846,-55.0537,-26.8555,-80.0171
59.776,-3.33387,-11.6254,0.809521,-52.063,-28.9307,-80.0781
59.782,-3.29555,-11.7739,0.641868,-48.7671,-30.1514,-79.834
59.786,-3.28597,-11.8601,0.574807,-45.3491,-30.5176,-79.4067
59.792,-3.32429,-11.9128,0.555648,-41.8701,-30.2124,-78.7964
59.797,-3.32429,-11.932,0.579594,-38.3301,-29.1748,-78.2471
59.802,-3.34824,-11.9128,0.641868,-34.9121,-27.6489,-77.1484
59.807,-3.3195,-11.7931,0.65624,-31.4331,-25.5737,-75.8057
59.811,-3.22369,-11.6254,0.756822,-28.3203,-22.7661,-74.2188
59.817,-3.22369,-11.4865,0.88137,-26.062,-19.4702,-72.4487
59.821,-3.21412,-11.271,0.981961,-23.9868,-15.4419,-70.0073
59.827,-3.15185,-11.065,1.13524,-22.3999,-10.8032,-67.1997
59.831,-3.13269,-10.9069,1.27415,-21.2402,-5.79834,-64.6973
59.837,-3.1231,-10.7584,1.44659,-20.2637,-0.305176,-62.1948
59.842,-3.08478,-10.6531,1.49449,-19.2261,5.67627,-59.021
59.847,-3.07041,-10.4902,1.50407,-18.3105,11.8408,-55.542
59.852,-3.07521,-10.3273,1.49449,-17.4561,18.1885,-51.9409
59.857,-3.04168,-10.1118,1.43222,-16.8457,24.5361,-48.4619
59.862,-3.09437,-9.91059,1.36037,-16.6016,30.4565,-44.8608
59.867,-3.15663,-9.72378,1.2981,-16.6626,35.3394,-41.8701
59.873,-3.28597,-9.59444,1.15919,-16.7847,38.8794,-39.3677
59.878,-3.28118,-9.48428,1.04902,-16.6016,41.0767,-36.9873
59.883,-3.21891,-9.32621,1.01549,-16.1743,42.6025,-33.9355
59.888,-3.19496,-9.22562,1.04423,-16.2964,44.7388,-31.0059
59.893,-3.24285,-9.1394,1.07297,-16.4795,47.3022,-29.4189
59.898,-3.33387,-9.10107,1.1544,-16.6626,49.6826,-28.2593
59.903,-3.49194,-9.16334,1.19272,-17.2729,51.3916,-26.9775
59.908,-3.7506,-9.23041,1.23104,-17.5781,51.9409,-26.062
59.914,-3.94699,-9.23519,1.17835,-17.9443,50.8423,-25.2075
59.919,-4.10506,-9.24478,1.32205,-17.7612,49.2554,-24.5361
59.924,-4.09069,-9.30225,1.51365,-16.5405,48.4619,-23.7427
59.929,-4.11465,-9.25915,1.62862,-15.1978,48.3398,-23.5596
59.934,-4.24397,-9.23519,1.66215,-14.8926,48.3398,-23.6816
59.939,-4.4739,-9.21603,1.56156,-15.0146,47.0581,-23.7427
59.944,-4.78525,-9.1825,1.3939,-15.0146,43.5791,-23.6816
59.949,-4.96727,-9.10107,1.22146,-14.5874,38.269,-23.9258
59.955,-4.93853,-8.99569,1.2023,-14.0381,31.7383,-25.1465
59.96,-4.84752,-8.98612,1.10171,-14.0381,24.9634,-26.4282
59.965,-4.70382,-9.04838,1.02507,-13.7329,19.4092,-27.6489
59.97,-4.53616,-9.0915,0.958005,-13.0615,15.3198,-28.9917
59.975,-4.49306,-9.12503,0.919687,-12.207,12.146,-30.0293
59.98,-4.49785,-9.1394,0.9149,-11.3525,9.58252,-31.0059
59.985,-4.52659,-9.12024,0.900529,-10.6812,7.14111,-31.7993
59.99,-4.60322,-9.1394,0.943634,-10.0708,4.45557,-32.5317
59.995,-4.61281,-9.20166,0.986749,-9.58252,1.40381,-33.2031
60.001,-4.58885,-9.26394,1.00112,-8.72803,-1.64795,-33.7524
60.006,-4.56012,-9.29747,1.06338,-7.8125,-4.3335,-33.8745
60.011,-4.50263,-9.29268,1.12566,-6.95801,-6.71387,-33.8135
60.016,-4.44994,-9.29747,1.15919,-6.34766,-8.54492,-33.6304
60.021,-4.4691,-9.29747,1.20709,-5.67627,-10.1929,-33.2031
60.026,-4.4739,-9.29268,1.2502,-5.18799,-11.4136,-32.7148
60.031,-4.4691,-9.31663,1.26936,-4.88281,-12.4512,-31.9824
60.036,-4.4739,-9.32621,1.23104,-4.82178,-13.2446,-31.189
60.042,-4.44994,-9.31663,1.20709,-4.39453,-13.855,-29.7852
60.047,-4.44516,-9.29268,1.24062,-3.78418,-14.0381,-28.3813
60.052,-4.40684,-9.2831,1.22146,-3.479,-13.6719,-26.5503
60.057,-4.33978,-9.30225,1.17356,-3.11279,-13.1226,-24.7192
60.061,-4.38288,-9.29268,1.1544,-2.74658,-12.3901,-22.8271
60.067,-4.33978,-9.31184,1.15919,-2.62451,-11.4746,-20.9351
60.071,-4.38768,-9.38847,1.13045,-2.50244,-10.498,-19.043
60.077,-4.41163,-9.50344,1.1065,-2.38037,-9.82666,-17.2119
60.081,-4.44994,-9.60403,1.09213,-2.13623,-9.46045,-15.4419
60.087,-4.4691,-9.78126,1.09213,-1.83106,-9.21631,-13.5498
60.092,-4.51222,-9.97765,1.08255,-1.40381,-9.39941,-11.8408
60.096,-4.53616,-10.1597,1.09213,-1.15967,-9.76562,-10.2539
60.102,-4.58885,-10.3896,1.08255,-0.732422,-10.1929,-8.8501
60.106,-4.61281,-10.6195,1.04902,-0.244141,-11.0474,-7.38525
60.112,-4.68944,-10.8542,1.0586,0.427246,-12.085,-5.85938
60.116,-4.71819,-11.0554,1.00112,1.2207,-13.0615,-4.39453
60.122,-4.7613,-11.2566,0.96759,2.01416,-14.2822,-3.17383
60.126,-4.80441,-11.5009,0.986749,2.80762,-15.3198,-2.01416
60.131,-4.83794,-11.6398,0.924475,3.78418,-16.4185,-0.793457
60.137,-4.85231,-11.7739,0.910103,4.82178,-17.5781,0.549316
60.141,-4.90979,-11.8745,0.871785,6.16455,-18.5547,2.01416
60.147,-4.91458,-11.9368,0.843052,7.32422,-19.165,3.54004
60.151,-4.89542,-12.0086,0.780778,8.17871,-19.7754,5.06592
60.157,-4.89542,-12.0853,0.646656,9.0332,-20.2026,6.65283
60.161,-4.90979,-12.1188,0.512533,9.8877,-20.6299,8.05664
60.167,-4.90021,-12.2146,0.39757,10.7422,-21.3013,9.52148
60.172,-4.91458,-12.3008,0.292191,11.4746,-21.9116,11.1084
60.177,-4.90979,-12.4349,0.273032,12.146,-22.4609,12.6343
60.182,-4.97685,-12.5499,0.215555,12.7563,-22.8271,14.2212
60.186,-4.98643,-12.6505,0.186812,13.4888,-23.3154,15.9302
60.192,-5.04391,-12.7271,0.268245,14.1602,-23.8037,17.7002
60.196,-5.09181,-12.7702,0.292191,14.7705,-24.5972,19.3481
60.202,-5.12056,-12.7655,0.359252,15.3198,-25.6348,21.4844
60.206,-5.13013,-12.708,0.383208,15.9912,-26.7334,23.7427
60.212,-5.09181,-12.6026,0.387995,16.6626,-28.1372,26.001
60.217,-5.02954,-12.3966,0.440685,17.2729,-29.1138,28.5034
60.221,-4.97206,-12.1619,0.39757,17.7612,-30.0903,30.8838
60.227,-4.91458,-11.9895,0.359252,17.9443,-31.0059,33.1421
60.231,-4.87147,-11.7883,0.301775,17.9443,-31.9824,35.3394
60.237,-4.84273,-11.5919,0.253873,18.1885,-33.3862,37.2925
60.242,-4.80441,-11.4578,0.148494,18.1885,-34.9731,39.3677
60.247,-4.78525,-11.2901,0.0958045,18.1274,-36.377,41.626
60.252,-4.75651,-11.1081,0.0862201,18.1885,-37.7197,43.7012
60.257,-4.73256,-10.974,-0.0431149,18.0664,-39.3677,45.4712
60.262,-4.64155,-10.8015,-0.148494,18.0664,-41.1377,47.2412
60.267,-4.56969,-10.6578,-0.158069,18.3105,-42.7856,49.0723
60.272,-4.49785,-10.4806,-0.129335,18.3716,-44.4336,51.0864
60.277,-4.49785,-10.3465,-0.0143716,18.0054,-46.3257,52.8564
60.283,-4.5218,-10.2172,0.13891,17.6392,-48.4619,53.9551
60.288,-4.51222,-10.1597,0.273032,17.2729,-51.1475,54.9927
60.293,-4.43078,-10.0878,0.330509,16.9067,-54.3213,55.7861
60.298,-4.33978,-10.0687,0.383208,16.6626,-57.5561,56.5796
60.303,-4.28709,-10.0351,0.435898,16.4795,-60.9131,57.1899
60.308,-4.26313,-10.0543,0.464631,16.2354,-63.8428,57.6172
60.313,-4.29188,-10.0064,0.464631,16.7236,-66.7725,57.6172
60.318,-4.24876,-9.97765,0.474215,17.4561,-69.397,57.8003
60.324,-4.2296,-9.9537,0.435898,18.1885,-71.8384,57.9834
60.329,-4.1865,-9.89622,0.292191,18.8599,-73.8525,57.9834
60.334,-4.11943,-9.88185,0.201183,19.5923,-75.2563,57.8003
60.339,-4.07632,-9.93454,0.0574768,20.3247,-76.2329,57.6782
60.344,-4.05716,-10.0112,-0.105379,21.1792,-76.5991,57.251
60.349,-4.04279,-10.083,-0.277819,22.2168,-76.1719,56.9458
60.354,-3.98053,-10.1645,-0.383208,23.3765,-75.5005,56.5796
60.359,-3.97573,-10.289,-0.488587,24.5361,-74.4019,56.1523
60.365,-3.99968,-10.3992,-0.507746,25.7568,-72.937,55.6641
60.37,-4.02363,-10.5046,-0.617912,26.9165,-71.5942,55.1147
60.375,-4.02363,-10.5764,-0.622709,28.2593,-70.4346,54.6265
60.38,-4.02363,-10.6866,-0.704132,29.602,-69.519,54.0771
60.385,-3.97573,-10.7536,-0.766406,31.311,-68.6646,53.772
60.39,-4.00447,-10.768,-0.747247,32.8369,-67.9321,53.4668
60.395,-4.01406,-10.7872,-0.747247,34.1797,-67.2607,53.3447
60.401,-3.9901,-10.768,-0.814308,35.5225,-66.5894,53.4058
60.406,-3.89909,-10.7393,-0.833467,36.6821,-65.918,53.4668
60.411,-3.85598,-10.6866,-0.857414,37.4756,-65.3076,53.5889
60.416,-3.85598,-10.6722,-0.852626,38.208,-64.5752,53.894
60.421,-3.80809,-10.6483,-0.857414,38.8184,-63.5376,54.3213
60.426,-3.74581,-10.6578,-0.871785,39.2456,-62.3169,54.7485
60.431,-3.68833,-10.6004,-0.886157,39.7339,-60.9741,55.4199
60.436,-3.69312,-10.5333,-0.862211,40.2832,-59.3262,56.3354
60.442,-3.65001,-10.38,-0.866998,40.4663,-57.0068,57.373
60.446,-3.61648,-10.2028,-0.862211,40.7715,-54.1992,58.7769
60.452,-3.58295,-10.0208,-0.838255,40.7715,-50.8423,60.3638
60.456,-3.49673,-9.86748,-0.761619,40.2832,-46.6919,62.0727
60.462,-3.46799,-9.67109,-0.752035,39.6729,-41.8701,63.9038
60.467,-3.42009,-9.5226,-0.74246,39.0625,-36.5601,65.7349
60.471,-3.40572,-9.38369,-0.737663,38.0249,-31.25,67.688
60.477,-3.37697,-9.21125,-0.713717,37.1094,-26.2451,69.7632
60.481,-3.33387,-9.05318,-0.708929,36.1328,-21.4844,71.5942
60.487,-3.26202,-8.86637,-0.646656,35.2173,-16.9067,73.6084
60.491,-3.26202,-8.72745,-0.689771,34.0576,-12.6343,75.8057
60.497,-3.24285,-8.59333,-0.694558,32.8369,-8.54492,77.5146
60.501,-3.19016,-8.464,-0.670602,31.4331,-4.69971,79.2847
60.506,-3.20932,-8.39215,-0.632284,29.7852,-1.0376,80.9936
60.512,-3.19975,-8.33946,-0.646656,28.2593,2.01416,82.5806
60.516,-3.18059,-8.25324,-0.651443,26.7944,4.69971,84.1064
60.522,-3.24765,-8.18138,-0.713717,25.6958,6.89697,85.3882
60.526,-3.26681,-8.10953,-0.780778,24.6582,8.91113,86.6089
60.532,-3.23807,-8.04727,-0.852626,23.4985,10.376,87.4634
60.536,-3.32429,-8.01853,-0.886157,21.8506,11.3525,87.8296
60.541,-3.3674,-7.98021,-0.905316,20.1416,11.6577,88.0127
60.547,-3.44404,-7.98021,-0.876573,18.4326,10.9253,87.8906
60.552,-3.52068,-7.98978,-0.804724,16.7236,9.27734,87.7075
60.557,-3.57816,-8.01374,-0.699345,15.1367,6.7749,87.2803
60.561,-3.61169,-8.04727,-0.637071,13.7329,3.84522,86.6089
60.567,-3.66917,-8.00416,-0.565223,12.4512,0.549316,85.8154
60.571,-3.67875,-8.01853,-0.541277,11.5967,-3.17383,84.8389
60.577,-3.62606,-7.91794,-0.536489,10.7422,-6.65283,83.9233
60.581,-3.60211,-7.8365,-0.550851,9.82666,-10.0708,82.8857
60.587,-3.53984,-7.7886,-0.488587,8.66699,-13.2446,81.665
60.592,-3.48715,-7.71196,-0.48379,7.56836,-16.0522,80.1392
60.596,-3.38656,-7.66885,-0.48379,6.40869,-18.7378,78.3081
60.602,-3.26681,-7.71196,-0.536489,5.37109,-21.1792,76.0498
60.606,-3.18538,-7.75987,-0.617912,4.63867,-23.5596,73.6694
60.612,-3.08478,-7.83172,-0.699345,4.15039,-25.6958,70.8618
60.616,-2.98899,-7.82693,-0.74246,3.72314,-27.6489,68.2373
60.622,-2.95546,-7.81256,-0.737663,3.41797,-29.1138,65.4907
60.626,-2.92193,-7.80776,-0.713717,2.86865,-30.2734,62.3779
60.631,-2.90756,-7.82693,-0.675399,2.19727,-31.3721,59.1431
60.637,-2.91234,-7.8365,-0.661027,1.58691,-32.2876,55.6641
60.641,-2.93629,-7.85566,-0.632284,1.0376,-33.2031,52.4292
60.647,-2.94109,-7.86046,-0.617912,0.488281,-34.2407,49.0723
60.652,-2.99856,-7.83172,-0.603541,0.061035,-35.2173,45.4712
60.657,-3.07041,-7.82213,-0.550851,-0.610352,-36.1328,41.8701
60.662,-3.06084,-7.92272,-0.498162,-1.64795,-37.2314,38.3911
60.667,-2.99378,-8.00416,-0.39757,-2.80762,-38.147,34.729
60.672,-3.00335,-8.09516,-0.359252,-3.479,-39.1846,30.9448
60.677,-2.96982,-8.18138,-0.335306,-4.15039,-39.978,27.2827
60.682,-2.92672,-8.23407,-0.368836,-4.82178,-40.2832,23.5596
60.688,-2.85965,-8.35862,-0.411942,-5.49316,-40.3442,19.8364
60.693,-2.75428,-8.5119,-0.464631,-6.28662,-39.978,16.2964
60.698,-2.70159,-8.69871,-0.550851,-7.08008,-39.0015,12.6953
60.703,-2.60099,-8.88553,-0.661027,-7.8125,-37.8418,9.15527
60.708,-2.49082,-9.06754,-0.799937,-8.48389,-36.438,5.61523
60.713,-2.46687,-9.26872,-0.843052,-9.21631,-35.0342,2.31934
60.718,-2.46687,-9.52738,-0.838255,-10.0708,-33.6304,-0.854492
60.724,-2.44292,-9.77647,-0.833467,-11.2305,-32.2876,-4.15039
60.729,-2.41418,-10.0591,-0.833467,-12.085,-31.0669,-7.14111
60.734,-2.42855,-10.198,-0.823883,-12.6953,-30.0293,-9.94873
60.739,-2.4525,-10.313,-0.823883,-13.0005,-28.8086,-12.3901
60.744,-2.41418,-10.4327,-0.814308,-13.3667,-27.3437,-14.5874
60.749,-2.37107,-10.5141,-0.886157,-13.855,-25.5127,-16.6626
60.754,-2.28963,-10.6387,-1.04423,-14.5874,-23.1934,-18.6768
60.759,-2.20821,-10.8111,-1.20709,-15.1978,-20.813,-20.813
60.765,-2.17468,-11.0602,-1.31726,-16.1743,-17.7612,-23.1323
60.77,-2.14594,-11.2805,-1.42743,-17.2729,-14.4043,-25.3906
60.775,-2.18905,-11.5009,-1.48491,-18.4326,-11.5967,-27.71
60.78,-2.18905,-11.6733,-1.42743,-19.5312,-9.0332,-29.7241
60.785,-2.22258,-11.75,-1.33163,-20.3857,-6.83594,-31.6162
60.79,-2.3088,-11.7452,-1.1065,-21.3013,-4.88281,-33.3252
60.795,-2.39023,-11.7548,-0.833467,-22.9492,-3.23486,-35.1562
60.8,-2.44292,-11.8458,-0.627497,-25.1465,-2.13623,-37.6587
60.806,-2.48124,-11.8985,-0.479003,-26.9775,-1.40381,-40.1611
60.811,-2.52915,-11.8649,-0.31135,-28.5645,-0.793457,-41.9311
60.816,-2.54351,-11.75,-0.182025,-30.0293,-0.305176,-43.5181
60.821,-2.62494,-11.5153,-0.0766455,-31.311,0.366211,-45.0439
60.826,-2.65368,-11.2087,0.0335306,-32.8369,1.2207,-46.4477
60.831,-2.6489,-10.9117,0.114963,-34.4238,2.19727,-47.4243
60.836,-2.66806,-10.6387,0.186812,-35.8887,3.23486,-48.0347
60.841,-2.62973,-10.3321,0.110166,-36.9873,4.63867,-48.4009
60.846,-2.63452,-10.0399,-0.0143716,-37.7197,6.34766,-48.2788
60.852,-2.57225,-9.84353,-0.25866,-38.208,8.66699,-48.1567
60.856,-2.44771,-9.68066,-0.411942,-38.7573,11.4136,-48.2178
60.862,-2.32316,-9.51781,-0.493374,-39.6729,14.5874,-47.7905
60.866,-2.27527,-9.47469,-0.613125,-40.4663,18.1274,-47.1802
60.872,-2.26569,-9.36453,-0.637071,-41.1987,21.4844,-46.5698
60.876,-2.23694,-9.33578,-0.445472,-42.3584,24.6582,-45.8374
60.881,-2.26569,-9.38847,-0.325721,-43.5791,27.3437,-45.4102
60.887,-2.24174,-9.5226,-0.316147,-44.2505,29.6631,-45.166
60.891,-2.213,-9.68546,-0.287404,-44.5557,31.4941,-44.6167
60.897,-2.13157,-9.80042,-0.325721,-44.5557,32.8979,-43.8843
60.901,-2.12678,-9.81958,-0.301775,-44.3726,34.2407,-43.1519
60.907,-2.14115,-9.81,-0.325721,-44.3726,35.4614,-42.6636
60.911,-2.20341,-9.81479,-0.421526,-44.4946,36.1938,-42.6025
60.916,-2.24174,-9.88665,-0.502959,-44.6777,36.5601,-43.0298
60.922,-2.2609,-10.016,-0.531692,-44.8608,36.6211,-43.8232
60.926,-2.35191,-10.1932,-0.57001,-45.166,36.6211,-44.8608
60.932,-2.36628,-10.3513,-0.579594,-45.7153,36.6211,-46.3867
60.936,-2.46687,-10.4902,-0.364039,-46.7529,36.1938,-48.4009
60.942,-2.73512,-10.6195,-0.0431149,-48.2788,35.5225,-50.7202
60.946,-3.02731,-10.8447,0.34488,-49.9878,34.1187,-53.6499
60.952,-3.3626,-11.0171,0.704132,-51.3916,31.9824,-56.5796
60.956,-3.57816,-11.1129,1.04902,-52.7344,29.48,-59.3262
60.962,-3.78892,-11.1608,1.3939,-54.3213,26.6113,-61.5234
60.967,-4.02843,-11.1943,1.68131,-55.542,24.1089,-63.4766
60.971,-4.00447,-11.2039,1.7819,-56.2744,22.4609,-64.8193
60.977,-3.90868,-11.0698,1.74357,-56.2744,22.7051,-65.0024
60.981,-3.74102,-10.8207,1.71962,-56.0303,26.123,-63.7817
60.987,-3.59253,-10.5477,1.56634,-56.3965,32.8369,-61.1572
60.991,-3.56858,-10.2603,1.48491,-56.9458,42.7246,-57.6782
60.997,-3.72665,-9.97287,1.47054,-57.5561,55.9692,-53.4058
61.001,-4.00447,-9.69504,1.29331,-58.3496,71.5332,-48.7061
61.006,-4.36372,-9.49865,1.09213,-58.5327,88.0737,-43.335
61.012,-4.73735,-9.35974,0.986749,-58.3496,104.309,-37.5366
61.016,-5.39359,-9.21125,1.04423,-57.6172,118.164,-32.1045
61.022,-6.38991,-9.02922,1.48012,-56.2744,127.258,-27.3437
61.026,-7.5012,-8.8472,2.04535,-54.3823,130.554,-22.7051
61.032,-8.57896,-8.57417,2.61537,-51.9409,128.54,-18.1274
61.036,-9.70462,-8.3203,3.19975,-49.6216,121.826,-13.5498
61.041,-10.6866,-8.21491,3.54941,-48.2788,110.962,-10.0098
61.047,-11.2997,-8.38735,3.67396,-47.1802,97.8393,-7.44629
61.052,-11.7643,-8.76098,3.81287,-45.0439,83.9844,-4.94385
61.057,-12.4349,-9.12981,4.038,-40.5884,69.6411,-1.52588
61.062,-13.4169,-9.32141,4.20565,-33.6914,53.2227,1.77002
61.067,-14.2408,-9.32621,4.26793,-26.8555,33.9966,4.39453
61.072,-14.8348,-9.2831,4.15775,-21.2402,11.4746,5.92041
61.077,-14.8539,-9.19209,3.9949,-16.6016,-11.6577,6.16455
61.082,-14.1594,-8.9909,3.89909,-12.2681,-31.3721,6.46973
61.088,-13.2397,-8.95737,3.72665,-8.48389,-44.5557,6.28662
61.093,-12.5786,-9.04838,3.47757,-5.31006,-50.7812,5.06592
61.098,-12.3679,-9.11544,3.32907,-1.52588,-51.9409,3.66211
61.103,-12.6122,-9.12024,3.28118,2.99072,-51.1475,3.23486
61.108,-12.9523,-9.14897,3.21891,7.26318,-51.4526,3.90625
61.113,-12.9954,-9.17293,3.13747,10.7422,-53.2837,5.43213
61.118,-12.5451,-9.16334,3.05125,13.0005,-54.3213,8.05664
61.123,-11.8697,-9.0915,3.04647,15.0146,-52.124,11.5967
61.129,-11.4578,-9.0915,3.171,16.7236,-45.8374,15.7471
61.134,-11.4434,-9.09628,3.30513,17.8223,-36.8652,20.2026
61.139,-11.7404,-9.22562,3.38656,18.7988,-28.0151,24.7803
61.144,-12.0326,-9.47949,3.35303,19.7144,-21.7895,29.9683
61.149,-12.0278,-9.71899,3.25244,21.1182,-18.3716,35.4614
61.154,-11.6637,-9.86269,3.18059,22.9492,-15.9912,41.748
61.159,-11.2566,-9.84353,2.98899,24.9634,-13.6108,48.584
61.164,-10.9452,-9.78605,2.67763,26.6113,-10.8643,55.481
61.17,-10.6866,-9.75731,2.21779,27.771,-8.36182,62.3779
61.175,-10.4327,-9.7621,1.80584,28.7476,-7.01904,69.1528
61.18,-10.1788,-9.81,1.3939,29.7852,-6.53076,75.8667
61.185,-9.8579,-9.80042,0.996333,31.1279,-6.5918,82.7637
61.19,-9.57529,-9.84832,0.704132,32.4097,-7.01904,89.7217
61.195,-9.28788,-9.89143,0.435898,33.8135,-7.8125,96.3135
61.2,-8.98132,-9.93934,0.282616,34.9121,-8.54492,102.661
61.205,-8.69392,-9.99202,0.0335306,36.0107,-9.82666,108.765
61.21,-8.37778,-10.0878,-0.143697,36.9263,-11.0474,114.685
61.216,-8.0281,-10.2172,-0.239501,37.5366,-12.3291,119.751
61.221,-7.63532,-10.3752,-0.359252,37.7808,-13.6719,124.023
61.226,-7.26649,-10.6051,-0.459844,37.8418,-15.0146,128.174
61.231,-6.95513,-10.7776,-0.613125,38.208,-16.1133,131.897
61.236,-6.57672,-10.9117,-0.641868,38.5132,-17.4561,135.254
61.241,-6.30369,-11.0123,-0.637071,38.3911,-18.6768,138.062
61.246,-5.96838,-11.0985,-0.804724,38.0859,-20.2637,140.32
61.251,-5.54207,-11.1416,-0.919687,37.6587,-21.9727,142.578
61.256,-5.00559,-11.2374,-1.02985,37.1704,-23.8037,144.47
61.262,-4.40204,-11.3332,-1.14003,36.438,-25.6958,145.813
61.267,-3.86077,-11.3955,-1.31247,35.7056,-27.6489,146.667
61.272,-3.22849,-11.4434,-1.52323,35.5225,-29.3579,147.034
61.276,-2.66806,-11.3045,-1.72921,35.8887,-30.6396,146.851
61.282,-2.10762,-11.1656,-1.89206,36.0718,-31.4941,145.874
61.286,-1.44181,-10.9883,-1.825,35.2783,-32.3486,144.104
61.292,-0.924475,-10.8351,-1.81063,34.8511,-32.8369,141.724
61.297,-0.349677,-10.6435,-1.86332,34.3628,-32.5317,138.672
61.302,0.110166,-10.4471,-1.87769,34.0576,-31.3721,135.01
61.307,0.340093,-10.3177,-1.95434,33.1421,-28.9307,130.615
61.311,0.498162,-10.313,-2.01182,31.9214,-25.3906,125.061
61.317,0.641868,-10.2938,-2.07888,30.6396,-21.3013,118.835
61.321,0.866998,-10.1884,-2.14594,29.4189,-16.7236,112.671
61.327,1.04423,-10.0974,-2.18426,28.0151,-11.9019,106.323
61.331,1.13045,-9.96328,-2.27048,26.7334,-6.7749,99.2432
61.337,1.23583,-9.87227,-2.31359,24.9023,-1.46484,91.6748
61.342,1.31726,-9.87227,-2.36149,22.4609,3.90625,83.9844
61.346,1.31247,-9.91538,-2.35191,19.3481,8.66699,75.8057
61.352,1.41785,-9.92017,-2.36628,16.2354,12.5122,67.3828
61.356,1.52803,-9.85311,-2.5004,13.6108,15.5029,59.6924
61.362,1.67172,-9.72378,-2.48124,10.8032,17.395,52.6123
61.366,1.83937,-9.59924,-2.47645,7.8125,18.1885,45.4102
61.372,2.08846,-9.50344,-2.41418,4.63867,17.8223,38.4521
61.376,2.35191,-9.38847,-2.26569,1.40381,15.9302,31.7993
61.381,2.62015,-9.23041,-2.17947,-1.83106,13.4277,25.5127
61.387,2.82612,-9.10587,-2.04056,-4.76074,10.498,19.5312
61.391,2.96503,-8.99569,-1.86332,-7.56836,7.56836,13.5498
61.397,3.03688,-8.92863,-1.83937,-10.2539,4.76074,7.75146
61.401,3.07041,-8.91906,-1.76753,-13.0615,2.07519,1.70898
61.407,3.00815,-9.01006,-1.81543,-15.625,-0.549316,-4.21143
61.411,2.92193,-9.06275,-1.83937,-17.334,-2.86865,-9.82666
61.416,2.91234,-9.10587,-1.85375,-18.7378,-4.5166,-15.3809
61.422,2.89318,-9.0915,-1.89206,-19.5923,-5.37109,-20.9351
61.427,2.83091,-9.05797,-1.86812,-20.3247,-5.24902,-26.6724
61.432,2.69679,-9.01485,-1.81543,-21.6064,-4.39453,-32.4707
61.436,2.48603,-9.00528,-1.77231,-22.8271,-3.05176,-38.5742
61.442,2.28006,-9.07234,-1.74357,-23.9868,-1.34277,-45.227
61.446,2.08366,-9.18729,-1.7819,-24.8413,0.427246,-51.8188
61.452,1.77231,-9.21603,-1.80106,-25.0854,2.50244,-58.4106
61.457,1.56156,-9.25915,-1.79147,-25.3296,5.37109,-65.0635
61.462,1.33642,-9.2831,-1.78669,-26.062,9.09424,-71.5942
61.467,1.08734,-9.38369,-1.80584,-27.0386,13.4277,-78.125
61.472,0.780778,-9.47469,-1.72921,-28.1982,18.7378,-84.2285
61.477,0.450259,-9.60403,-1.63819,-29.2969,24.5361,-90.332
61.482,0.129335,-9.74773,-1.60946,-29.9683,30.5176,-96.1914
61.487,-0.31135,-9.87706,-1.43222,-30.3955,36.6211,-101.624
61.492,-0.737663,-10.0495,-1.24062,-30.5176,42.7856,-106.445
61.498,-1.17356,-10.2459,-1.07776,-30.6396,49.4995,-110.84
61.503,-1.47534,-10.3321,-0.857414,-30.1514,56.0913,-114.99
61.508,-1.82979,-10.38,-0.661027,-29.7852,62.3779,-118.835
61.513,-2.23694,-10.4423,-0.526905,-29.4189,68.0542,-122.559
61.518,-2.73512,-10.4423,-0.387995,-29.1138,72.3877,-125.793
61.523,-3.2716,-10.4375,-0.301775,-29.1138,75.6836,-128.662
61.528,-3.88472,-10.4662,-0.210758,-29.3579,77.5146,-131.287
61.533,-4.45474,-10.4806,-0.158069,-29.8462,77.5146,-133.911
61.539,-5.07744,-10.495,-0.0670612,-30.1514,75.3174,-136.108
61.544,-5.772,-10.5141,0.0335306,-30.2124,70.8618,-138.062
61.549,-6.41387,-10.5764,0.0287433,-29.9072,65.0635,-139.832
61.554,-6.88328,-10.5908,-0.0862201,-28.8696,58.3496,-141.357
61.559,-7.23296,-10.6243,-0.191599,-27.832,51.7578,-142.456
61.564,-7.57306,-10.7153,-0.167653,-27.2827,46.3257,-142.944
61.569,-7.86525,-10.8494,-0.134122,-27.2217,43.0908,-142.639
61.574,-8.15265,-11.0842,-0.215555,-26.9775,42.6636,-141.724
61.58,-8.44484,-11.2805,-0.182025,-26.7334,44.6777,-140.198
61.585,-8.8472,-11.4003,-0.124538,-26.6724,47.9736,-137.634
61.59,-9.20166,-11.4099,-0.0958045,-26.2451,52.4902,-134.155
61.595,-9.48907,-11.3955,-0.0239462,-25.7568,56.5796,-130.432
61.6,-9.64235,-11.3428,0.124538,-24.6582,60.3027,-125.977
61.605,-9.85311,-11.2518,0.402367,-22.9492,63.9038,-121.094
61.61,-10.0974,-11.1177,0.555648,-21.1792,67.627,-116.333
61.616,-10.3225,-10.9357,0.603541,-19.7144,71.4722,-111.572
61.621,-10.6866,-10.6483,0.560435,-18.6157,75.1343,-107.239
61.626,-11.2949,-10.4471,0.4311,-18.1274,76.9043,-103.699
61.631,-12.0853,-10.1932,0.387995,-17.4561,75.5005,-101.196
61.636,-12.8996,-9.94891,0.493374,-16.2964,70.6787,-98.999
61.641,-13.5798,-9.73815,0.661027,-15.0757,62.6831,-96.4355
61.646,-14.0636,-9.54655,0.866998,-13.9771,52.5513,-93.8721
61.651,-14.4084,-9.38847,1.04423,-13.0005,41.3208,-91.6138
61.657,-14.6048,-9.20166,1.22625,-11.9019,30.2734,-89.2944
61.661,-14.6815,-8.96696,1.49928,-10.9253,19.4702,-86.9141
61.667,-14.7054,-8.7514,1.66693,-10.3149,9.15527,-84.4726
61.672,-14.6863,-8.65081,1.70047,-10.376,-0.671387,-82.2143
61.677,-14.5761,-8.57417,1.48012,-10.0708,-10.5591,-80.2002
61.682,-14.3366,-8.47837,1.26457,-9.21631,-19.9585,-77.7588
61.686,-14.0492,-8.31551,1.09691,-8.11768,-28.4424,-74.2798
61.692,-13.8336,-8.15265,1.08734,-7.56836,-35.5225,-70.4956
61.697,-13.6468,-8.01853,1.20709,-7.8125,-41.5649,-66.7114
61.701,-13.4313,-7.87482,1.43701,-8.42285,-46.6309,-62.7441
61.706,-13.3115,-7.75028,1.69088,-8.91113,-50.4761,-58.1665
61.712,-13.1056,-7.58743,1.89206,-9.46045,-53.2227,-53.1006
61.716,-12.9139,-7.41498,2.00224,-10.0708,-54.0771,-48.0347
61.721,-12.6888,-7.36708,2.03097,-10.9253,-53.1616,-42.9687
61.727,-12.5403,-7.39582,2.08366,-12.085,-50.9033,-38.147
61.732,-12.4349,-7.5012,2.15072,-13.3667,-48.1567,-33.3862
61.736,-12.2721,-7.70718,2.03577,-14.4043,-45.2881,-28.6255
61.741,-12.1188,-7.89878,1.89685,-14.7705,-42.4805,-23.5596
61.747,-11.9943,-8.0329,1.69088,-14.8926,-40.3442,-18.3716
61.752,-11.9032,-8.10953,1.42265,-14.0991,-39.0625,-13.1836
61.756,-11.7835,-8.16702,1.18793,-12.8784,-38.6353,-7.87354
61.762,-11.6302,-8.19097,0.977164,-11.6577,-38.7573,-2.62451
61.767,-11.5536,-8.2245,0.699345,-10.437,-39.4897,2.19727
61.771,-11.5009,-8.24844,0.4311,-8.97217,-41.0767,6.28662
61.776,-11.4003,-8.2724,0.186812,-7.08008,-43.6401,10.1929
61.782,-11.2518,-8.31551,-0.0143716,-4.82178,-46.4477,13.916
61.787,-11.0363,-8.35862,-0.25866,-2.62451,-49.4385,17.2729
61.791,-10.8878,-8.42088,-0.450259,-0.610352,-52.063,19.7144
61.797,-10.7584,-8.5119,-0.723291,1.28174,-54.6875,21.5454
61.802,-10.6339,-8.6077,-0.929272,3.11279,-57.9834,22.8271
61.807,-10.5908,-8.6556,-1.18793,5.00488,-62.1338,23.8037
61.811,-10.5381,-8.69871,-1.44659,6.89697,-67.1387,24.4141
61.817,-10.4088,-8.66997,-1.73878,9.21631,-72.5098,24.9023
61.822,-10.2267,-8.63165,-1.99744,11.3525,-78.0029,25.0854
61.826,-10.0734,-8.58375,-2.16988,12.6953,-83.374,24.5972
61.831,-9.92496,-8.53585,-2.22737,13.4888,-88.8672,23.2544
61.837,-9.83874,-8.6077,-2.23694,13.855,-94.5434,21.5454
61.841,-9.81958,-8.76098,-2.23216,13.916,-100.769,19.5312
61.846,-9.88665,-8.88073,-2.17947,14.2822,-107.727,17.5781
61.852,-9.92975,-9.00528,-2.04535,14.0991,-115.234,15.8691
61.857,-9.88185,-9.04838,-1.93518,13.3667,-123.108,14.4653
61.862,-9.83874,-9.02922,-1.89685,12.6343,-130.859,13.5498
61.867,-9.73336,-8.97175,-1.86812,11.7187,-137.756,12.5732
61.872,-9.59444,-8.86157,-1.93518,10.498,-143.982,12.085
61.877,-9.44596,-8.78015,-1.93997,8.97217,-149.109,11.7798
61.882,-9.32141,-8.70829,-1.9735,6.83594,-153.503,11.5967
61.887,-9.17293,-8.57896,-2.04535,4.45557,-156.921,11.9019
61.892,-9.01485,-8.42568,-2.13635,2.19727,-159.912,12.5122
61.898,-8.81368,-8.30593,-2.29922,-0.244141,-162.598,13.5498
61.903,-8.62686,-8.18618,-2.43813,-2.74658,-164.49,15.1978
61.908,-8.37299,-8.09996,-2.57704,-5.06592,-165.649,17.334
61.913,-8.14785,-7.99937,-2.76385,-7.20215,-166.382,19.7754
61.918,-7.93231,-7.94188,-2.87881,-9.39941,-166.809,22.4609
61.923,-7.76465,-7.85566,-2.99856,-11.5967,-167.114,25.5127
61.928,-7.61616,-7.79818,-3.18059,-13.3667,-167.664,28.9307
61.933,-7.42456,-7.73591,-3.30513,-14.8315,-168.091,32.7759
61.938,-7.24733,-7.61137,-3.42966,-15.8691,-168.335,36.9873
61.944,-7.05572,-7.48204,-3.50152,-16.7236,-168.396,41.3208
61.949,-6.85934,-7.34792,-3.52547,-17.8833,-168.213,45.5933
61.954,-6.64378,-7.23296,-3.50631,-18.9819,-167.664,49.9878
61.959,-6.47134,-7.13237,-3.53984,-20.1416,-166.931,54.0771
61.964,-6.34681,-7.14194,-3.49194,-21.3013,-166.077,57.8003
61.969,-6.19352,-7.13716,-3.45362,-22.3999,-165.283,61.3403
61.974,-6.06419,-7.22338,-3.4153,-23.4985,-164.185,64.5752
61.979,-5.95881,-7.35271,-3.37219,-24.7192,-163.086,67.2607
61.985,-5.88216,-7.4533,-3.34344,-26.001,-162.109,69.397
61.99,-5.80074,-7.57306,-3.3626,-27.4048,-161.56,71.106
61.995,-5.74325,-7.7886,-3.38177,-28.1372,-161.255,72.5098
62,-5.69535,-7.99457,-3.3626,-28.5645,-160.828,73.6084
62.005,-5.68099,-8.20055,-3.35782,-28.7476,-160.4,74.1577
62.01,-5.64266,-8.42568,-3.32429,-29.0527,-159.79,74.4019
62.015,-5.67141,-8.56459,-3.26202,-29.6631,-159.18,74.3408
62.02,-5.772,-8.72266,-3.21412,-30.0903,-158.569,74.0356
62.026,-5.8151,-8.91906,-3.14706,-30.5176,-157.776,73.3643
62.031,-5.80553,-9.10107,-3.08957,-30.8228,-156.921,72.5098
62.036,-5.79594,-9.26872,-3.07521,-31.1279,-155.579,71.228
62.041,-5.76721,-9.43638,-3.06084,-31.25,-154.053,70.0684
62.046,-5.75284,-9.58008,-3.03209,-31.4941,-152.1,68.6646
62.051,-5.68578,-9.7142,-2.98899,-31.7383,-149.902,66.9556
62.056,-5.60435,-9.83395,-3.01294,-32.1045,-147.278,65.2466
62.061,-5.54687,-9.9058,-3.04647,-32.3486,-144.348,63.5376
62.067,-5.50375,-9.94891,-3.06563,-32.4097,-141.174,62.1338
62.072,-5.43669,-9.95849,-3.10394,-32.2266,-137.939,61.0352
62.076,-5.29778,-9.88185,-3.09916,-31.9824,-134.46,60.0586
62.081,-5.17803,-9.82437,-3.07041,-31.8604,-130.981,59.2651
62.087,-5.08223,-9.82437,-3.02731,-31.7383,-127.319,58.6548
62.091,-4.95769,-9.73815,-2.96025,-31.5552,-123.413,58.2886
62.096,-4.81878,-9.6136,-2.85965,-31.4941,-119.629,57.9834
62.102,-4.68944,-9.48428,-2.73512,-31.6162,-115.906,57.9224
62.107,-4.58407,-9.35016,-2.60578,-31.7383,-112.488,58.1055
62.111,-4.43557,-9.19209,-2.40939,-31.7383,-108.887,58.6548
62.116,-4.29188,-9.06275,-2.26569,-31.9824,-105.041,59.2041
62.122,-4.14818,-8.96216,-2.20821,-31.9824,-101.135,59.8755
62.127,-3.98531,-8.85678,-2.15072,-32.2876,-97.0459,60.6079
62.131,-3.81766,-8.68434,-2.05972,-32.8369,-92.9565,61.5845
62.137,-3.71228,-8.55501,-1.90644,-33.3862,-88.8672,62.5
62.142,-3.62127,-8.49753,-1.74357,-34.1187,-84.5947,63.2324
62.146,-3.56858,-8.49753,-1.64778,-34.79,-80.5664,63.6597
62.151,-3.52068,-8.49274,-1.66693,-35.0952,-76.355,64.3311
62.157,-3.40093,-8.40173,-1.66215,-35.0952,-72.3267,64.8193
62.162,-3.31471,-8.27719,-1.71484,-35.0952,-67.9932,65.3687
62.166,-3.23807,-8.14307,-1.71484,-35.0952,-63.6597,65.7349
62.172,-3.16622,-7.98978,-1.734,-35.3394,-59.3262,65.7349
62.177,-3.16622,-7.93709,-1.76753,-35.7666,-55.4199,65.1245
62.181,-3.21412,-7.93231,-1.84896,-36.5601,-52.1851,64.0869
62.186,-3.28597,-7.91315,-1.83459,-37.1094,-49.8657,62.8052
62.192,-3.32429,-7.92272,-1.81543,-37.4146,-48.2788,61.3403
62.197,-3.34824,-7.86525,-1.84896,-37.7197,-47.2412,59.6313
62.201,-3.38177,-7.84609,-1.734,-38.0249,-46.5698,57.8003
62.206,-3.46799,-7.86046,-1.59029,-38.6963,-46.3867,55.7251
62.212,-3.54941,-7.90835,-1.49928,-39.7339,-46.6919,52.9175
62.216,-3.559,-8.04247,-1.35079,-40.9546,-47.5464,49.9878
62.221,-3.63085,-8.21971,-1.26936,-42.2363,-49.4385,46.9971
62.227,-3.69791,-8.38735,-1.16877,-43.335,-52.0019,43.8843
62.232,-3.73144,-8.47358,-1.08734,-44.0674,-55.4199,40.7104
62.236,-3.71228,-8.55501,-1.02507,-44.7388,-59.3872,37.5366
62.241,-3.71228,-8.62686,-0.96759,-45.4102,-63.4155,34.1797
62.247,-3.69791,-8.71787,-0.871785,-46.6309,-67.4438,30.5786
62.252,-3.68833,-8.88073,-0.79515,-47.7295,-71.2891,26.9165
62.256,-3.58774,-9.10107,-0.675399,-48.8281,-74.3408,23.3765
62.262,-3.46799,-9.26872,-0.646656,-49.5605,-76.5381,19.9585
62.267,-3.34344,-9.3741,-0.560435,-50.1709,-78.064,16.8457
62.272,-3.32429,-9.46991,-0.512533,-51.0254,-79.0405,13.6108
62.277,-3.3195,-9.55613,-0.522118,-51.6357,-80.0781,10.0708
62.282,-3.28118,-9.74773,-0.546064,-52.2461,-80.6274,6.04248
62.287,-3.22369,-9.94891,-0.603541,-51.9409,-81.0547,2.07519
62.292,-3.171,-10.1309,-0.675399,-51.7578,-81.2378,-1.58691
62.297,-3.10394,-10.2938,-0.694558,-51.4526,-80.5664,-5.31006
62.303,-3.03688,-10.4758,-0.804724,-50.9644,-79.4067,-8.97217
62.308,-2.94587,-10.5908,-0.886157,-50.293,-77.6978,-12.5122
62.313,-2.92672,-10.7105,-0.986749,-49.4995,-75.3174,-16.2354
62.318,-2.8836,-10.8351,-1.0586,-48.7061,-72.7539,-19.6533
62.323,-2.87403,-10.883,-1.08255,-47.3633,-70.0684,-22.9492
62.328,-2.89797,-10.883,-1.16398,-45.9595,-67.1997,-25.9399
62.333,-2.94109,-10.883,-1.14961,-44.4946,-64.3921,-28.8696
62.338,-2.94587,-10.8255,-1.10171,-43.2739,-61.6455,-31.6772
62.344,-2.9794,-10.8063,-1.00112,-42.5415,-59.021,-34.5459
62.349,-2.95546,-10.8542,-0.852626,-41.9311,-56.9458,-37.3535
62.354,-2.96025,-10.9213,-0.780778,-41.3818,-55.1147,-40.1611
62.359,-2.9794,-10.9357,-0.694558,-40.8325,-53.5278,-42.7856
62.364,-2.95546,-10.9644,-0.560435,-40.1611,-52.063,-45.3491
62.369,-2.90756,-11.0123,-0.450259,-39.7339,-50.9033,-47.6685
62.374,-2.87881,-10.9979,-0.335306,-39.4287,-49.3774,-49.8047
62.379,-2.96025,-10.9069,-0.13891,-39.3677,-48.0347,-51.7578
62.385,-3.08957,-10.7249,0.191599,-39.856,-47.1191,-53.5889
62.39,-3.21891,-10.5429,0.479003,-40.5884,-46.7529,-55.1758
62.395,-3.34824,-10.3848,0.819096,-41.687,-46.814,-56.6406
62.4,-3.48235,-10.1549,1.06818,-42.6636,-47.6074,-58.1055
62.405,-3.61169,-10.0591,1.3029,-44.0674,-48.8892,-59.2041
62.41,-3.65959,-9.9537,1.43222,-45.4712,-50.5371,-60.4248
62.415,-3.65001,-9.91059,1.5855,-46.7529,-52.3682,-61.3403
62.42,-3.56379,-9.92975,1.5376,-47.7905,-54.0771,-62.1948
62.426,-3.48235,-9.9058,1.42743,-48.5229,-55.1147,-62.6221
62.431,-3.34344,-9.89143,1.36995,-49.1943,-55.1147,-62.6221
62.436,-3.23807,-9.89143,1.19272,-49.6216,-54.4434,-62.561
62.441,-3.13269,-9.86748,1.02507,-49.8657,-52.9175,-62.3169
62.446,-3.05604,-9.91059,0.895741,-49.7436,-50.9033,-61.7065
62.451,-3.00815,-9.82916,0.732876,-49.3164,-48.584,-60.73
62.456,-2.96025,-9.73815,0.684973,-48.7671,-46.0815,-59.5093
62.461,-2.92672,-9.64713,0.613125,-48.2788,-43.0298,-58.1665
62.466,-2.90756,-9.5226,0.531692,-47.6074,-39.7949,-56.5796
62.471,-2.81654,-9.4268,0.536489,-46.6309,-36.7432,-54.9316
62.477,-2.78781,-9.25915,0.512533,-45.4712,-33.6304,-53.2227
62.482,-2.76385,-9.12503,0.546064,-44.3115,-30.7617,-51.3916
62.486,-2.75906,-8.96216,0.603541,-43.335,-28.0762,-49.6216
62.491,-2.68243,-8.89031,0.752035,-42.7246,-25.5737,-47.8516
62.497,-2.60099,-8.8951,0.852626,-42.2363,-23.2544,-46.3867
62.502,-2.60578,-8.90947,0.890944,-41.5039,-21.2402,-45.0439
62.506,-2.47645,-8.97653,0.953218,-40.5273,-19.043,-43.2739
62.512,-2.39981,-9.05318,1.01069,-39.7949,-16.6626,-41.748
62.517,-2.4046,-9.14419,1.07297,-39.3677,-14.1602,-40.7715
62.521,-2.42855,-9.3789,1.08734,-39.0015,-11.4136,-40.1611
62.526,-2.42376,-9.66151,1.05381,-38.3301,-8.66699,-39.7339
62.532,-2.42376,-9.96328,0.981961,-37.2314,-5.85938,-39.6118
62.537,-2.42855,-10.1357,0.857414,-35.5835,-2.99072,-39.0625
62.541,-2.52435,-10.2794,0.799937,-34.1797,-0.183105,-38.6963
62.547,-2.70637,-10.3848,0.718504,-32.7759,2.2583,-39.1235
62.552,-2.82134,-10.4902,0.627497,-31.6162,3.72314,-40.2222
62.556,-2.95546,-10.5956,0.579594,-30.5786,4.57764,-41.687
62.561,-3.01294,-10.7249,0.613125,-29.541,5.00488,-43.5791
62.567,-3.01294,-10.859,0.661027,-28.5034,4.94385,-45.6543
62.572,-3.04168,-10.9644,0.766406,-27.4658,4.76074,-47.7905
62.576,-3.04647,-10.9692,0.819096,-26.3672,4.76074,-50.1099
62.581,-3.17579,-10.9548,0.905316,-25.5127,4.69971,-52.4902
62.587,-3.34344,-10.8734,1.05381,-25.0854,4.3335,-55.2368
62.591,-3.5111,-10.8111,1.15919,-24.7803,3.479,-58.2886
62.596,-3.68833,-10.6962,1.28373,-24.9023,2.13623,-61.1572
62.602,-3.80329,-10.5908,1.41306,-25.0244,0.244141,-63.8428
62.607,-3.88472,-10.4375,1.49449,-25.1465,-1.89209,-66.1621
62.611,-3.9901,-10.2507,1.60946,-25.5737,-4.15039,-68.4204
62.616,-4.05716,-10.0208,1.75315,-26.2451,-6.40869,-70.8008
62.622,-4.0859,-9.85311,1.79147,-27.1606,-8.72803,-72.937
62.627,-4.09548,-9.74294,1.82022,-28.0151,-11.1084,-74.707
62.631,-4.07632,-9.59924,1.84896,-29.0527,-13.2446,-76.1719
62.637,-4.09069,-9.47949,1.83937,-29.7852,-15.4419,-77.1484
62.642,-4.08112,-9.3741,1.83459,-30.3345,-17.0288,-78.125
62.646,-4.03321,-9.27831,1.76274,-30.7617,-18.3105,-78.6133
62.651,-3.97094,-9.17772,1.65256,-31.0059,-19.2261,-78.7964
62.657,-3.92784,-9.12503,1.51844,-31.25,-19.7754,-78.7964
62.662,-3.87035,-9.12503,1.35559,-31.4331,-20.1416,-78.6743
62.666,-3.80809,-9.16334,1.2023,-31.3721,-20.5078,-78.4302
62.672,-3.78413,-9.26872,1.05381,-31.0059,-20.874,-78.064
62.677,-3.81287,-9.38369,0.88137,-30.3955,-21.4233,-77.8809
62.682,-3.82724,-9.49385,0.809521,-29.7241,-22.1558,-77.5146
62.686,-3.88951,-9.62798,0.689771,-28.8086,-23.4985,-77.1484
62.692,-3.99968,-9.72378,0.617912,-27.4048,-25.3906,-76.5991
62.697,-4.10985,-9.82437,0.665815,-25.8789,-27.5879,-75.9888
62.701,-4.25356,-9.89622,0.761619,-24.231,-30.0903,-75.1953
62.706,-4.39247,-9.89143,0.82868,-22.583,-32.8369,-74.2798
62.712,-4.44994,-9.92017,0.886157,-21.1792,-35.7056,-73.3643
62.716,-4.50263,-9.91538,0.981961,-19.4702,-38.5742,-72.3267
62.721,-4.52659,-9.85311,1.06818,-18.2495,-41.3818,-70.9839
62.727,-4.56969,-9.7621,1.14961,-17.0288,-43.7622,-69.519
62.732,-4.54575,-9.67109,1.21667,-15.8081,-45.5322,-67.9321
62.736,-4.46432,-9.57529,1.16877,-14.5874,-46.7529,-66.1011
62.741,-4.36372,-9.46512,1.15919,-13.3667,-47.0581,-64.209
62.747,-4.28709,-9.31184,1.12566,-12.5732,-46.6919,-62.1338
62.752,-4.2296,-9.17772,1.07776,-11.6577,-45.7764,-60.1807
62.756,-4.17691,-9.06275,1.02507,-10.8643,-44.2505,-58.0444
62.762,-4.10985,-8.94779,0.96759,-10.2539,-42.3584,-55.603
62.767,-4.04279,-8.84241,0.900529,-9.52148,-39.917,-53.1006
62.771,-4.00447,-8.77535,0.857414,-8.91113,-36.8652,-50.5981
62.776,-3.93741,-8.72266,0.857414,-8.54492,-33.3862,-48.1567
62.782,-3.9422,-8.67476,0.82868,-8.23975,-29.541,-45.8374
62.787,-3.98531,-8.6556,0.823883,-8.11768,-25.8179,-43.396
62.791,-4.04279,-8.62207,0.838255,-7.8125,-22.644,-41.1987
62.797,-4.16254,-8.62207,0.852626,-7.69043,-19.8975,-39.1846
62.802,-4.22003,-8.60291,0.833467,-7.38525,-17.6392,-37.0483
62.806,-4.23919,-8.55022,0.852626,-7.01904,-15.9912,-35.0952
62.811,-4.28709,-8.54064,0.79515,-6.5918,-14.5264,-33.02
62.817,-4.32062,-8.49274,0.771194,-6.53076,-13.0615,-31.1279
62.822,-4.3781,-8.47358,0.814308,-7.01904,-11.7798,-29.4189
62.826,-4.517,-8.49274,0.838255,-7.56836,-10.8643,-28.0762
62.831,-4.68466,-8.57896,0.852626,-8.17871,-10.8032,-27.1606
62.837,-4.8092,-8.68913,0.895741,-8.54492,-11.7187,-26.3672
62.841,-4.88105,-8.78015,0.862211,-8.60596,-13.3057,-25.4517
62.846,-4.93853,-8.87594,0.838255,-8.78906,-15.5029,-24.353
62.852,-4.96727,-8.91906,0.82868,-8.78906,-17.7002,-23.4375
62.857,-5.02954,-8.97653,0.74246,-8.66699,-19.8975,-22.7661
62.861,-5.03912,-9.02922,0.684973,-8.72803,-22.0947,-22.1558
62.866,-5.12534,-9.11065,0.651443,-9.0332,-24.4751,-21.6064
62.872,-5.15887,-9.21603,0.632284,-9.15527,-26.9165,-20.9351
62.877,-5.20198,-9.32141,0.622709,-9.27734,-29.3579,-20.3247
62.882,-5.293,-9.45554,0.574807,-9.46045,-32.0435,-19.8975
62.887,-5.3409,-9.59444,0.574807,-9.46045,-34.6069,-19.165
62.892,-5.35526,-9.76689,0.536489,-9.39941,-37.1704,-18.6157
62.897,-5.37443,-9.93454,0.469428,-8.91113,-39.6118,-17.8223
62.902,-5.30737,-10.1022,0.435898,-8.48389,-41.5039,-16.6016
62.908,-5.26904,-10.2507,0.359252,-7.93457,-42.7856,-15.1978
62.913,-5.26904,-10.4135,0.25866,-7.32422,-43.5181,-13.4888
62.918,-5.25468,-10.5908,0.186812,-6.53076,-43.6401,-11.6577
62.923,-5.28341,-10.7393,0.119751,-5.92041,-43.335,-9.76562
62.928,-5.36006,-10.9165,0.0431149,-5.49316,-42.9687,-7.69043
62.933,-5.43669,-11.1033,0,-5.18799,-42.5415,-5.49316
62.938,-5.53728,-11.2662,-0.0335306,-4.5166,-42.0532,-3.17383
62.943,-5.63788,-11.4578,-0.0766455,-3.84522,-41.748,-0.610352
62.949,-5.72888,-11.5392,-0.114963,-3.35693,-41.3818,2.19727
62.954,-5.78157,-11.6398,-0.162866,-2.68555,-40.8325,5.31006
62.959,-5.79116,-11.7356,-0.220342,-2.01416,-40.5273,8.42285
62.964,-5.83427,-11.7548,-0.273032,-1.64795,-39.856,11.6577
62.969,-5.83427,-11.841,-0.34488,-1.52588,-39.0015,15.0146
62.974,-5.88696,-11.9368,-0.373624,-1.46484,-38.4521,18.3105
62.979,-5.94923,-12.0613,-0.39757,-1.83106,-38.3911,21.2402
62.984,-5.95402,-12.1811,-0.368836,-2.19727,-38.6963,24.231
62.99,-5.98755,-12.2481,-0.273032,-2.50244,-39.5508,27.5269
62.995,-6.0115,-12.3152,-0.244289,-2.62451,-40.8936,30.8838
63,-5.93965,-12.229,-0.167653,-2.38037,-42.4805,34.3628
63.005,-5.87259,-12.0709,-0.119751,-2.19727,-44.3115,38.0249
63.01,-5.73368,-11.8506,-0.0910074,-2.31934,-45.7153,41.626
63.015,-5.62829,-11.6398,-0.124538,-2.56348,-46.9971,44.9829
63.02,-5.48938,-11.4051,-0.0862201,-3.11279,-47.7905,48.4009
63.025,-5.42232,-11.1799,-0.114963,-3.96728,-47.8516,51.8188
63.031,-5.28341,-10.9644,-0.167653,-4.76074,-47.7295,55.0537
63.036,-5.17324,-10.7249,-0.167653,-5.5542,-47.3633,58.3496
63.041,-5.1014,-10.5189,-0.220342,-6.46973,-46.814,61.3403
63.046,-5.01038,-10.3609,-0.287404,-7.38525,-46.0815,64.27
63.051,-4.93374,-10.2124,-0.368836,-7.93457,-45.105,67.0166
63.056,-4.83315,-10.083,-0.435898,-8.48389,-44.1894,69.7021
63.061,-4.69424,-9.99681,-0.48379,-9.0332,-42.9687,72.2656
63.066,-4.62718,-9.92017,-0.48379,-9.52148,-41.5649,74.646
63.072,-4.54575,-9.86748,-0.560435,-10.0098,-40.1611,76.416
63.076,-4.56491,-9.79563,-0.598753,-10.3149,-39.2456,78.0029
63.081,-4.57449,-9.79563,-0.613125,-10.8032,-38.7573,79.4678
63.087,-4.57928,-9.80521,-0.689771,-10.8032,-39.3066,80.3223
63.091,-4.58407,-9.83874,-0.684973,-10.6201,-40.5884,80.7495
63.096,-4.56012,-9.91059,-0.665815,-10.1929,-42.0532,80.8105
63.102,-4.49306,-10.0974,-0.603541,-9.46045,-43.0298,81.4819
63.107,-4.68466,-10.2555,-0.560435,-8.8501,-44.3115,81.3599
63.111,-5.0966,-10.3034,-0.833467,-8.8501,-47.6685,78.7354
63.116,-5.48459,-10.3992,-0.895741,-9.33838,-53.772,76.1719
63.122,-5.49897,-10.6435,-1.22625,-10.376,-61.5234,74.8901
63.127,-4.90979,-10.7488,-1.40348,-10.2539,-67.9321,73.6694
63.131,-3.98531,-10.883,-1.13524,-9.70459,-69.519,72.8149
63.137,-3.47757,-11.2087,-0.857414,-8.60596,-65.918,72.5708
63.142,-4.11465,-11.4817,-1.08255,-7.08008,-61.6455,70.1904
63.146,-5.18282,-11.5009,-1.40827,-5.67627,-62.3169,65.8569
63.151,-5.76721,-11.4721,-1.44659,-4.94385,-69.8242,64.1479
63.157,-5.77679,-11.7308,-1.43222,-4.27246,-80.5664,64.6362
63.162,-5.50375,-11.8937,-1.44181,-2.56348,-90.1489,63.8428
63.166,-5.24031,-11.908,-1.46575,-1.40381,-96.0693,60.6079
63.172,-5.05349,-11.8458,-1.55197,-1.0376,-98.8159,58.2275
63.177,-5.00559,-11.841,-1.60946,-0.732422,-99.8535,58.0444
63.182,-5.04391,-11.7931,-1.60946,0.183105,-100.403,58.1665
63.186,-5.09181,-11.726,-1.68609,1.52588,-101.562,57.6172
63.192,-5.01038,-11.6015,-1.84416,2.56348,-103.455,57.373
63.197,-4.79962,-11.4578,-1.89206,3.54004,-105.103,57.9224
63.201,-4.57449,-11.3907,-1.93997,4.15039,-105.835,58.7769
63.206,-4.30146,-11.271,-1.96871,5.00488,-105.347,59.5703
63.212,-4.17691,-11.1321,-1.9735,5.7373,-104.004,60.852
63.216,-4.10985,-11.0123,-1.98307,6.40869,-102.356,62.3169
63.221,-4.07153,-10.9261,-1.99744,6.83594,-100.342,64.0259
63.227,-3.97573,-10.8111,-1.93038,7.01904,-98.1445,66.1011
63.232,-3.90868,-10.7201,-1.825,7.20215,-95.459,68.3594
63.236,-3.83203,-10.7009,-1.72441,7.38525,-92.102,70.7397
63.241,-3.72186,-10.6291,-1.75315,7.62939,-88.1958,73.2422
63.247,-3.6069,-10.5381,-1.68609,7.62939,-84.3506,75.8667
63.252,-3.57816,-10.3609,-1.62862,7.44629,-80.8716,78.4302
63.256,-3.56858,-10.198,-1.59029,7.26318,-77.5757,81.1157
63.262,-3.5111,-10.0399,-1.59029,6.83594,-74.4629,83.9233
63.267,-3.42488,-9.91059,-1.59509,6.46973,-71.228,86.6089
63.271,-3.30991,-9.75731,-1.5855,6.10351,-68.0542,89.2944
63.277,-3.24765,-9.60403,-1.56156,5.98144,-64.7583,91.8579
63.282,-3.16143,-9.46512,-1.58071,5.5542,-61.2183,94.2383
63.287,-3.08478,-9.30225,-1.59029,5.00488,-57.7393,96.5576
63.292,-3.15185,-9.11544,-1.64298,4.3335,-54.6265,98.5107
63.297,-3.14706,-8.96216,-1.6334,3.72314,-51.9409,100.464
63.302,-3.07041,-8.87115,-1.5855,3.479,-49.0723,102.112
63.307,-2.96503,-8.77535,-1.66215,3.60107,-45.9595,103.699
63.312,-2.84528,-8.58854,-1.68609,3.2959,-42.9687,104.98
63.318,-2.79259,-8.37778,-1.75315,2.2583,-40.1001,105.774
63.323,-2.70159,-8.17181,-1.93518,1.15967,-37.5366,106.384
63.328,-2.31359,-8.07122,-1.98307,0.732422,-33.9355,107.91
63.333,-1.70047,-8.06163,-1.87769,1.09863,-26.062,111.389
63.338,-1.1544,-7.98978,-1.79626,0.976562,-12.7563,114.99
63.343,-0.790352,-7.70238,-1.68609,0.061035,4.76074,117.249
63.348,-0.670602,-7.30481,-1.55197,-1.89209,24.4141,118.591
63.353,-0.847839,-7.0701,-1.40348,-4.63867,44.2505,119.019
63.359,-1.17356,-6.94077,-1.35079,-7.56836,62.3169,118.835
63.364,-1.44181,-6.9743,-1.23583,-10.1318,77.3926,118.347
63.369,-1.70047,-7.06531,-1.16877,-11.8408,89.3555,117.249
63.374,-1.99744,-7.10363,-1.07776,-12.8784,98.1445,115.845
63.379,-2.17468,-7.08447,-1.05381,-13.2446,104.004,114.319
63.384,-2.21779,-7.0701,-1.04902,-13.4277,108.582,112.976
63.389,-2.16988,-7.06052,-1.02507,-13.7939,113.22,111.694
63.394,-2.18426,-7.08926,-0.996333,-14.5264,118.408,109.619
63.4,-2.36628,-7.118,-1.01549,-15.3809,123.474,106.14
63.405,-2.68243,-7.29044,-1.12087,-16.1743,128.235,102.112
63.41,-2.91234,-7.49162,-1.17356,-16.9678,132.507,98.3887
63.415,-3.16143,-7.77423,-1.18793,-17.9443,135.986,94.4214
63.42,-3.48715,-8.04247,-1.346,-18.7378,137.878,89.9658
63.425,-3.80329,-8.24366,-1.60946,-19.4092,137.329,84.6558
63.43,-4.15297,-8.38257,-1.81063,-19.2261,133.911,78.9795
63.435,-4.44994,-8.50711,-1.9735,-18.0664,127.686,73.4863
63.441,-4.62238,-8.56459,-2.12199,-16.1133,119.629,67.9321
63.446,-4.80441,-8.56938,-2.17947,-13.7329,110.352,62.0727
63.451,-4.9529,-8.58854,-2.27527,-11.4136,100.647,56.2744
63.456,-5.13013,-8.73224,-2.4046,-8.78906,91.1865,50.6592
63.461,-5.37922,-8.86637,-2.61057,-6.28662,81.9702,45.3491
63.466,-5.60913,-9.01965,-2.79738,-3.66211,72.6929,40.4663
63.471,-5.73368,-9.32621,-2.98419,-0.610352,63.5986,35.8276
63.477,-5.79116,-9.54176,-3.16143,3.35693,54.2602,31.5552
63.482,-5.74325,-9.68066,-3.3195,8.36182,45.105,27.771
63.486,-5.71452,-9.71899,-3.62127,13.6108,36.8652,24.5972
63.491,-5.59477,-9.73336,-3.96137,17.9443,30.7617,22.0337
63.497,-5.28821,-9.80042,-4.15775,21.3623,29.0527,21.1182
63.502,-4.73735,-10.0351,-4.37331,24.5972,33.4473,22.1558
63.506,-3.86077,-10.4567,-4.42121,28.5034,45.4712,24.7803
63.512,-2.74469,-10.6818,-4.46432,32.6538,65.8569,29.3579
63.517,-1.58071,-10.5716,-4.01884,34.3018,94.3603,37.0483
63.521,-1.13524,-10.2219,-3.07521,33.6914,129.822,46.5698
63.526,-1.7819,-9.88665,-1.42265,30.8228,166.26,53.3447
63.532,-3.25722,-9.73815,0.39757,25.4517,200.073,55.542
63.537,-4.83315,-9.7142,1.44181,17.0288,226.868,55.481
63.541,-6.50009,-10.0447,2.3088,7.50732,242.859,56.4575
63.547,-7.46767,-10.6195,2.3088,2.44141,249.939,59.1431
63.552,-7.69759,-10.6147,1.82022,0.061035,249.634,62.3169
63.556,-7.43415,-10.3752,1.21188,-0.12207,246.094,65.918
63.561,-6.6821,-10.2124,0.0191589,1.70898,243.286,70.0684
63.567,-5.92528,-9.88665,-1.21667,3.60107,242.249,73.8525
63.572,-5.36963,-9.68066,-2.39981,6.53076,243.774,77.2095
63.576,-5.01517,-9.67109,-3.55421,11.2305,247.009,79.9561
63.581,-4.93853,-9.69504,-4.49785,18.1274,249.695,82.2143
63.587,-5.18282,-9.66151,-5.21635,27.5879,250.671,83.313
63.591,-5.65703,-9.6136,-5.63309,38.8184,247.681,83.7402
63.596,-6.41865,-9.40763,-5.88216,50.0488,238.098,82.8857
63.602,-7.33355,-9.21603,-6.09293,61.3403,220.825,80.2002
63.607,-7.96104,-8.91906,-6.14562,73.2422,197.51,76.6602
63.611,-8.22929,-8.45921,-5.81032,84.1675,170.837,73.4863
63.616,-8.37778,-7.92751,-5.27862,93.2617,144.287,70.3735
63.622,-8.48316,-7.45809,-4.72298,99.5483,118.713,65.7959
63.627,-8.66518,-7.07488,-4.13859,103.577,94.0552,59.5703
63.631,-8.92863,-6.6821,-3.57337,106.079,68.9087,52.3682
63.637,-9.49385,-6.31806,-3.11353,106.995,40.7715,44.6167
63.642,-10.0351,-6.03066,-2.76865,107.361,8.78906,35.6445
63.646,-10.1261,-5.69535,-2.49561,107.666,-25.1465,26.4282
63.651,-9.86748,-5.23551,-2.18426,106.873,-58.3496,17.9443
63.657,-9.40763,-4.70382,-1.75315,103.516,-88.6841,10.1929
63.662,-8.87115,-4.28709,-1.36995,96.7407,-115.417,2.50244
63.666,-8.36819,-4.04759,-1.10171,88.4399,-138.55,-5.49316
63.672,-7.8844,-3.83203,-0.886157,79.895,-158.142,-13.1836
63.677,-7.38624,-3.64043,-0.713717,71.228,-174.805,-20.2026
63.682,-6.96472,-3.6069,-0.546064,62.2559,-188.721,-26.6113
63.687,-6.57193,-3.57816,-0.383208,52.8564,-200.806,-32.5928
63.692,-6.30369,-3.40093,-0.0862201,41.5649,-211.548,-37.9028
63.697,-6.0594,-3.31471,0.234714,28.3813,-221.008,-42.9077
63.702,-5.72888,-3.42488,0.498162,15.564,-227.783,-47.3633
63.707,-5.05349,-3.66438,0.833467,4.57764,-229.126,-50.5981
63.712,-4.53616,-3.9422,1.03944,-6.22558,-225.159,-52.9175
63.718,-4.25834,-4.16254,1.19751,-16.4795,-216.736,-55.7861
63.723,-4.34456,-4.38768,1.43222,-26.6724,-206.299,-58.96
63.728,-4.53616,-4.65591,1.57113,-36.1938,-195.923,-61.7065
63.733,-4.6655,-4.93853,1.66215,-44.3115,-186.584,-63.7207
63.738,-4.77088,-5.07744,1.61903,-51.9409,-178.894,-65.6128
63.743,-4.86189,-5.28821,1.55197,-59.6924,-172.791,-67.688
63.748,-4.92895,-5.66182,1.38912,-66.2842,-167.725,-69.7632
63.753,-4.89542,-6.12646,1.16398,-71.0449,-163.818,-72.0215
63.759,-4.88105,-6.60547,0.962802,-73.6694,-160.461,-74.0356
63.764,-4.87626,-6.94556,0.766406,-74.2798,-157.349,-75.9277
63.769,-4.90021,-7.17548,0.502959,-74.2798,-154.602,-77.6367
63.774,-5.01996,-7.4054,0.244289,-74.5239,-152.161,-79.2236
63.779,-5.22115,-7.67365,0.0622739,-73.8525,-150.208,-80.7495
63.784,-5.35047,-7.88919,-0.287404,-72.4487,-149.109,-82.1533
63.789,-5.47022,-8.16222,-0.502959,-69.8853,-148.254,-83.4961
63.794,-5.61872,-8.43526,-0.546064,-66.1621,-147.034,-84.8999
63.799,-5.78637,-8.50711,-0.617912,-62.8052,-146.057,-86.3647
63.805,-5.86301,-8.56938,-0.593966,-59.6313,-145.813,-88.3179
63.81,-5.94444,-8.63644,-0.584382,-57.312,-146.24,-90.7593
63.815,-5.97318,-8.6556,-0.536489,-54.8096,-147.156,-92.9565
63.82,-5.8678,-8.72266,-0.502959,-51.9409,-148.193,-94.9097
63.825,-5.70494,-8.71309,-0.464631,-49.0723,-148.499,-96.6797
63.83,-5.50854,-8.68913,-0.48379,-46.6309,-148.132,-98.2666
63.835,-5.31694,-8.76577,-0.493374,-43.5791,-146.729,-99.8535
63.84,-5.00559,-8.78493,-0.546064,-39.856,-144.043,-101.318
63.846,-4.72777,-8.65081,-0.637071,-37.1094,-140.259,-102.417
63.851,-4.50743,-8.55022,-0.622709,-35.4614,-135.62,-102.783
63.856,-4.29666,-8.54543,-0.670602,-34.2407,-130.066,-102.844
63.861,-4.10506,-8.57896,-0.684973,-32.8979,-123.901,-102.661
63.866,-3.9422,-8.56459,-0.747247,-31.4331,-117.065,-102.234
63.871,-3.77455,-8.45921,-0.761619,-30.7007,-109.985,-101.746
63.876,-3.67396,-8.39694,-0.809521,-30.3955,-102.905,-100.952
63.881,-3.67396,-8.4161,-0.756822,-30.3345,-96.0693,-100.342
63.887,-3.57816,-8.46879,-0.680186,-30.1514,-89.5996,-99.6094
63.892,-3.64522,-8.53106,-0.536489,-30.0293,-83.8013,-98.5718
63.896,-3.73623,-8.56938,-0.445472,-29.9683,-78.7964,-97.7173
63.901,-3.79371,-8.6556,-0.282616,-29.9683,-74.707,-96.8628
63.907,-3.87993,-8.73703,-0.110166,-29.7852,-71.2891,-95.7642
63.912,-3.97094,-8.80409,0.0191589,-29.1748,-68.6646,-94.4824
63.916,-3.9949,-8.8472,0.0622739,-28.5034,-66.5283,-93.0176
63.922,-4.02363,-8.83284,0.0862201,-27.832,-64.3311,-91.3696
63.927,-3.97573,-8.83284,0.114963,-27.5269,-62.3169,-89.3555
63.931,-3.95657,-8.85199,0.0766455,-27.2827,-60.1196,-87.2803
63.936,-3.97094,-8.86637,0.0622739,-26.9775,-57.8613,-85.2051
63.942,-3.96137,-8.83762,0.0526895,-26.4893,-55.6641,-83.0078
63.947,-3.93741,-8.89031,0,-25.8179,-53.2837,-80.6885
63.951,-3.87993,-8.8999,-0.0862201,-24.9634,-50.4761,-78.186
63.956,-3.86556,-8.83762,-0.0479022,-24.353,-47.7295,-75.6226
63.962,-3.87993,-8.80409,-0.0622739,-24.231,-44.8608,-73.1812
63.966,-3.87993,-8.78493,-0.00958437,-24.5972,-41.9311,-70.6177
63.971,-3.86556,-8.76577,0.0526895,-24.9634,-39.0015,-68.3594
63.977,-3.85598,-8.83284,0.124538,-25.6348,-35.8276,-65.979
63.982,-3.89431,-8.85199,0.182025,-26.3061,-32.7148,-63.8428
63.986,-3.87993,-8.84241,0.349677,-26.7334,-29.541,-61.7065
63.991,-3.87515,-8.91426,0.440685,-27.4658,-26.4282,-59.6313
63.997,-3.97094,-8.92384,0.584382,-28.4424,-23.3154,-57.6782
64.002,-4.02363,-8.87115,0.766406,-29.541,-20.6299,-55.7251
64.006,-4.10028,-8.83762,0.866998,-30.5786,-18.4326,-54.0771
64.012,-4.11943,-8.79931,0.958005,-31.6162,-16.6016,-52.4292
64.017,-4.13381,-8.68913,0.981961,-32.5928,-15.1978,-50.9033
64.021,-4.15297,-8.62207,1.05381,-33.6914,-13.916,-49.5605
64.026,-4.16254,-8.56938,1.11608,-35.0952,-12.9395,-48.584
64.032,-4.17212,-8.58375,1.17356,-36.377,-12.207,-48.0957
64.037,-4.22003,-8.56459,1.15919,-37.5977,-11.6577,-47.6074
64.041,-4.22481,-8.6604,1.16398,-38.8794,-11.5356,-47.3022
64.047,-4.26313,-8.75619,1.16877,-40.1611,-11.6577,-47.0581
64.052,-4.31103,-8.90468,1.11608,-41.1987,-11.5967,-46.936
64.056,-4.30146,-9.02922,1.08734,-42.2974,-11.2305,-47.1191
64.061,-4.35894,-9.19209,1.02985,-43.335,-10.5591,-47.4243
64.067,-4.43557,-9.3741,0.972377,-44.4336,-9.8877,-47.6685
64.072,-4.53138,-9.5705,0.96759,-45.2881,-9.21631,-48.2178
64.076,-4.67029,-9.79563,0.871785,-45.8984,-8.60596,-48.8281
64.081,-4.83794,-10.0256,0.790352,-46.3257,-8.17871,-49.4385
64.087,-4.87626,-10.2267,0.718504,-46.3867,-7.93457,-49.8047
64.092,-4.96248,-10.4614,0.651443,-46.4477,-7.44629,-50.354
64.097,-5.04391,-10.6626,0.665815,-46.3257,-6.83594,-50.9033
64.102,-5.17324,-10.8782,0.627497,-46.0205,-6.22558,-51.6357
64.107,-5.28821,-11.1081,0.627497,-45.5933,-6.04248,-52.7344
64.112,-5.384,-11.2901,0.526905,-44.7388,-6.04248,-53.6499
64.117,-5.45106,-11.4195,0.474215,-43.8232,-6.16455,-54.3213
64.123,-5.5325,-11.5057,0.421526,-42.7856,-6.46973,-54.8096
64.128,-5.61872,-11.5919,0.387995,-41.626,-6.7749,-55.1147
64.133,-5.70494,-11.6973,0.31135,-40.3442,-6.7749,-55.1758
64.138,-5.82947,-11.8506,0.22513,-39.0625,-6.34766,-55.0537
64.143,-5.85343,-11.9943,0.201183,-37.6587,-5.37109,-54.8096
64.148,-5.88216,-12.1907,0.0574768,-36.3159,-3.78418,-54.5044
64.153,-6.02587,-12.4254,0.0383179,-35.4614,-2.38037,-54.0771
64.158,-6.19831,-12.6601,-0.0191589,-34.4238,-1.34277,-53.4058
64.164,-6.38034,-12.8708,-0.0718484,-33.3862,-1.28174,-52.7954
64.169,-6.56715,-13.0433,-0.124538,-32.2876,-1.58691,-51.7578
64.174,-6.78749,-13.2301,-0.124538,-31.0059,-2.2583,-50.1709
64.179,-6.94556,-13.3115,-0.153281,-29.2969,-2.86865,-47.8516
64.184,-7.07968,-13.3451,-0.196396,-27.6489,-3.17383,-45.4102
64.189,-7.19463,-13.3211,-0.316147,-25.6348,-3.35693,-42.7856
64.194,-7.31918,-13.1534,-0.373624,-23.8647,-3.66211,-39.856
64.199,-7.39582,-13.0097,-0.502959,-22.0947,-4.02832,-36.3159
64.205,-7.48204,-12.7655,-0.617912,-20.4468,-4.39453,-32.6538
64.21,-7.50599,-12.4972,-0.718504,-18.9209,-5.31006,-28.8696
64.215,-7.53473,-12.2673,-0.819096,-17.7002,-6.83594,-24.9023
64.22,-7.52037,-12.0278,-0.934059,-16.8457,-9.15527,-20.9961
64.225,-7.46767,-11.7164,-1.03465,-16.0522,-12.5122,-17.0288
64.23,-7.39103,-11.4195,-1.13524,-15.3809,-16.8457,-12.7563
64.235,-7.25691,-11.0985,-1.18793,-14.8926,-22.0337,-8.36182
64.24,-7.0701,-10.7872,-1.11608,-14.8926,-28.3203,-4.02832
64.246,-6.9264,-10.38,-1.04423,-15.1978,-35.0952,0.366211
64.251,-6.73479,-10.0208,-0.96759,-15.8691,-42.1753,4.69971
64.256,-6.50966,-9.69025,-0.732876,-17.2119,-49.4995,9.09424
64.261,-6.36118,-9.36453,-0.574807,-19.104,-56.4575,13.3667
64.266,-6.15999,-9.1394,-0.464631,-21.1182,-63.2935,17.2729
64.271,-5.98276,-8.91906,-0.335306,-23.0103,-70.1904,20.874
64.276,-5.88216,-8.73703,-0.253873,-24.8413,-77.0874,24.1089
64.281,-5.772,-8.5598,-0.119751,-26.2451,-83.6792,27.0386
64.287,-5.54687,-8.38735,-0.13891,-27.771,-90.5151,29.6631
64.291,-5.37443,-8.34425,-0.0718484,-28.9307,-96.9849,31.7993
64.297,-5.24988,-8.36819,-0.0479022,-29.541,-102.356,33.8135
64.302,-5.06307,-8.47837,0.0335306,-30.0293,-106.079,35.6445
64.306,-5.10618,-8.68913,0.17244,-29.8462,-108.826,37.2314
64.311,-5.3361,-8.78493,0.0431149,-29.9683,-112.061,37.1094
64.317,-5.60435,-8.78972,-0.105379,-31.4331,-117.432,36.1938
64.322,-5.85343,-9.06275,-0.177227,-33.3252,-124.39,35.8276
64.326,-6.26059,-9.46032,-0.13891,-33.2031,-132.141,34.668
64.331,-6.40907,-9.59924,-0.680186,-32.5317,-141.541,31.0669
64.337,-6.27974,-9.5226,-0.890944,-33.0811,-152.893,25.6348
64.341,-5.8151,-9.68546,-0.88137,-34.0576,-162.903,20.813
64.346,-5.24509,-10.0112,-0.809521,-33.5693,-169.922,16.5405
64.352,-4.80441,-10.2219,-0.962802,-32.7148,-174.683,11.5967
64.357,-4.75172,-10.2267,-1.14482,-32.8369,-179.26,5.67627
64.361,-4.99122,-10.174,-1.28373,-33.5693,-184.692,0.12207
64.366,-5.16366,-10.1645,-1.50887,-33.6304,-192.444,-4.57764
64.372,-5.1445,-10.2651,-1.70525,-32.6538,-201.721,-8.54492
64.377,-4.84752,-10.3273,-1.90644,-31.311,-211.243,-12.5122
64.381,-4.29188,-10.2555,-2.12678,-30.5176,-219.299,-16.1133
64.387,-3.23807,-10.0351,-2.40939,-31.4941,-223.816,-18.5547
64.392,-2.20341,-10.1166,-2.18426,-32.1045,-221.985,-17.6392
64.396,-2.09804,-10.5141,-1.70525,-29.1748,-212.585,-14.0381
64.401,-2.48124,-10.6722,-1.85375,-23.5596,-199.707,-10.1929
64.407,-2.8405,-10.3177,-1.75794,-19.5923,-187.683,-7.56836
64.412,-3.08,-10.3417,-1.07297,-17.395,-178.589,-2.80762
64.416,-4.16734,-10.7632,-1.18314,-11.9629,-174.316,3.23486
64.422,-5.772,-10.7824,-1.49449,-2.74658,-176.819,6.46973
64.427,-6.63421,-10.3752,-1.51365,4.27246,-187.012,10.1929
64.431,-6.28453,-10.1118,-1.46096,6.95801,-199.89,16.5405
64.436,-5.0008,-10.0974,-1.2981,8.36182,-206.604,23.8037
64.442,-3.54463,-10.0878,-1.07297,10.3149,-202.515,28.9307
64.447,-2.65368,-9.94891,-0.958005,12.3901,-188.477,31.8604
64.451,-2.37107,-9.65193,-0.866998,13.4888,-169.495,35.1562
64.456,-2.53872,-9.43159,-0.852626,13.916,-151.184,40.5884
64.462,-2.77343,-9.27831,-0.88137,14.4653,-136.047,46.5698
64.466,-2.74469,-9.16813,-0.910103,15.1978,-124.268,51.6968
64.471,-2.56746,-9.07234,-0.862211,15.8691,-114.075,56.0303
64.477,-2.29922,-9.00048,-0.871785,16.5405,-104.248,59.7534
64.482,-2.02619,-8.8951,-0.857414,17.5781,-93.811,63.4766
64.486,-1.93038,-8.78493,-0.833467,18.4326,-83.0078,67.0776
64.492,-1.95913,-8.69871,-0.852626,19.165,-72.0825,70.3125
64.497,-2.0693,-8.64123,-0.871785,19.4702,-61.8896,72.876
64.502,-2.23694,-8.64602,-0.919687,19.5923,-53.4058,74.4019
64.507,-2.37586,-8.66518,-1.01549,20.2026,-46.5088,75.8057
64.512,-2.40939,-8.68434,-1.04423,21.0571,-40.5884,77.3315
64.517,-2.41897,-8.62207,-1.0586,21.7895,-35.0342,78.7354
64.522,-2.39981,-8.59812,-1.07776,22.2168,-29.7852,79.3457
64.527,-2.46687,-8.5598,-1.11608,22.2778,-24.7192,79.834
64.533,-2.55309,-8.52627,-1.17835,22.4609,-20.2026,79.895
64.538,-2.66326,-8.48795,-1.1544,22.2168,-16.1133,79.6509
64.543,-2.75906,-8.48316,-1.14482,21.7285,-12.7563,78.9795
64.548,-2.85487,-8.47358,-1.10171,21.1792,-10.0708,77.8809
64.553,-2.97462,-8.44963,-1.08255,20.2637,-8.36182,76.7212
64.558,-3.11353,-8.41131,-1.08734,19.4702,-7.14111,75.1343
64.563,-3.24765,-8.37299,-1.04902,18.5547,-6.7749,73.3032
64.568,-3.35782,-8.35862,-0.977164,17.5781,-7.32422,71.228
64.574,-3.50152,-8.31551,-0.88137,16.6626,-8.66699,68.7256
64.579,-3.61169,-8.31551,-0.838255,15.7471,-10.7422,65.8569
64.584,-3.71707,-8.20534,-0.771194,14.7705,-13.4888,62.9272
64.589,-3.78892,-8.11432,-0.670602,13.6108,-16.9678,59.8755
64.594,-3.86556,-8.07122,-0.646656,12.4512,-20.813,56.4575
64.599,-3.90388,-7.98978,-0.579594,11.2915,-24.9634,53.1006
64.604,-3.87993,-7.89878,-0.536489,10.0708,-29.2969,49.4995
64.609,-3.81287,-7.81734,-0.565223,8.8501,-33.5083,45.8374
64.615,-3.73623,-7.74071,-0.574807,7.32422,-37.4756,42.1753
64.62,-3.6548,-7.71675,-0.603541,6.16455,-41.1987,38.6353
64.625,-3.54941,-7.66885,-0.593966,5.12695,-44.3726,35.0342
64.63,-3.40572,-7.69759,-0.617912,3.84522,-46.9971,31.4331
64.635,-3.30034,-7.7934,-0.617912,2.74658,-49.0112,28.0151
64.64,-3.19016,-7.86525,-0.641868,1.58691,-50.7202,24.5361
64.645,-3.09916,-7.96584,-0.680186,0.427246,-52.3682,20.9351
64.651,-3.10394,-8.12391,-0.704132,-0.732422,-54.3823,17.2729
64.656,-3.08,-8.32988,-0.780778,-1.46484,-56.7017,13.5498
64.661,-3.04647,-8.58854,-0.771194,-1.70898,-59.5093,9.94873
64.666,-3.01294,-8.81846,-0.785565,-1.70898,-62.2559,6.71387
64.671,-3.01294,-9.09628,-0.862211,-1.77002,-64.4531,3.54004
64.676,-2.95546,-9.38847,-0.886157,-1.83106,-66.2842,0.061035
64.681,-2.89318,-9.69983,-0.910103,-1.83106,-68.0542,-3.479
64.686,-2.85007,-9.98723,-1.02507,-1.64795,-69.397,-6.53076
64.692,-2.82612,-10.2363,-1.07776,-0.976562,-70.4956,-9.33838
64.697,-2.79738,-10.5189,-1.15919,-0.305176,-70.9839,-11.9019
64.701,-2.77822,-10.7345,-1.24062,0.488281,-71.106,-14.5874
64.706,-2.77343,-10.9644,-1.25978,1.2207,-70.5566,-17.1509
64.712,-2.70159,-11.2326,-1.34121,2.01416,-69.7632,-19.2871
64.716,-2.6489,-11.4003,-1.42265,2.99072,-68.2373,-20.9961
64.721,-2.61057,-11.5009,-1.46575,4.21143,-66.1011,-22.522
64.727,-2.5004,-11.544,-1.42743,5.00488,-63.6597,-23.7427
64.732,-2.36149,-11.6063,-1.49449,5.85938,-60.3027,-24.9023
64.736,-2.22737,-11.6925,-1.55676,6.65283,-56.2134,-26.3672
64.741,-2.08846,-11.8553,-1.61903,6.95801,-51.6357,-27.832
64.747,-1.9735,-12.0038,-1.61903,7.32422,-46.0205,-29.2969
64.752,-1.86812,-12.1332,-1.67651,7.50732,-39.5508,-30.3345
64.756,-1.75794,-12.2194,-1.71484,7.75146,-32.2876,-31.4331
64.762,-1.75794,-12.3008,-1.61903,7.50732,-24.9023,-32.3486
64.767,-1.7771,-12.3391,-1.45618,6.7749,-17.2729,-33.3862
64.771,-1.81543,-12.4445,-1.32684,5.7373,-9.52148,-34.79
64.776,-1.83937,-12.5355,-1.23104,4.45557,-1.77002,-35.9497
64.782,-1.89685,-12.5355,-1.12087,3.23486,5.7373,-36.7432
64.787,-1.95434,-12.3583,-0.96759,1.95312,13.4888,-37.6587
64.791,-2.04056,-12.1236,-0.799937,0.244141,21.0571,-38.5742
64.797,-2.19384,-11.8074,-0.632284,-1.70898,28.3813,-39.3066
64.802,-2.38544,-11.4099,-0.426313,-4.02832,35.4614,-39.978
64.806,-2.60578,-10.9404,-0.182025,-6.7749,41.8091,-40.4053
64.811,-2.83571,-10.4135,0.100592,-10.0708,47.3633,-40.5273
64.817,-3.06084,-9.83395,0.421526,-13.7329,51.8188,-40.3442
64.822,-3.32429,-9.29268,0.785565,-17.7612,54.9316,-40.2222
64.826,-3.57816,-8.81368,1.10171,-21.7895,56.2134,-40.1001
64.831,-3.70749,-8.43526,1.26457,-25.0854,56.2744,-39.7949
64.837,-3.83203,-8.12391,1.36037,-27.6489,55.2978,-39.3066
64.841,-3.88472,-7.7886,1.49928,-29.9072,53.5278,-38.3301
64.846,-3.88951,-7.55868,1.55197,-32.1045,51.0864,-37.1704
64.852,-3.87993,-7.39103,1.52323,-34.4849,48.3398,-36.1328
64.857,-3.95178,-7.29044,1.51844,-36.8042,44.8608,-35.0342
64.861,-3.93741,-7.25212,1.62382,-39.2456,40.5273,-33.7524
64.866,-3.90868,-7.31439,1.59509,-41.5039,35.4004,-32.4097
64.872,-3.88472,-7.37666,1.57593,-42.9077,29.7852,-30.6396
64.877,-3.77455,-7.43415,1.45618,-43.5181,23.8037,-28.6255
64.881,-3.66438,-7.46288,1.3939,-43.9453,18.0664,-26.4282
64.887,-3.57337,-7.5012,1.26457,-44.1284,12.5122,-23.9868
64.892,-3.4153,-7.60179,1.14003,-44.3726,7.38525,-21.7895
64.897,-3.26202,-7.79818,0.943634,-44.3726,2.68555,-20.0195
64.902,-3.08478,-8.05685,0.680186,-44.0674,-1.40381,-18.3105
64.907,-2.85487,-8.37778,0.335306,-43.335,-4.69971,-16.6016
64.912,-2.63452,-8.73703,0.00478728,-42.3584,-6.95801,-15.1978
64.917,-2.33754,-9.15376,-0.378411,-41.2598,-8.11768,-13.7329
64.922,-2.09804,-9.59444,-0.737663,-39.7339,-8.05664,-12.5122
64.927,-1.84416,-10.0399,-1.1065,-37.9639,-6.89697,-11.7798
64.933,-1.68131,-10.4902,-1.43222,-35.7666,-4.88281,-11.2305
64.938,-1.59509,-10.8734,-1.59509,-33.2031,-2.07519,-10.9253
64.943,-1.57113,-11.1464,-1.69568,-30.0903,1.28174,-10.9253
64.948,-1.62382,-11.3141,-1.65735,-26.3672,4.82178,-10.8032
64.953,-1.69568,-11.2997,-1.38432,-22.7051,7.99561,-10.7422
64.958,-1.93997,-11.1321,-1.03944,-19.2871,10.3149,-11.3525
64.963,-2.17468,-10.9548,-0.613125,-16.6016,11.9019,-12.4512
64.968,-2.39981,-10.7488,-0.148494,-14.0991,12.3901,-14.1602
64.974,-2.58662,-10.5668,0.273032,-12.3291,12.146,-16.3574
64.979,-2.70159,-10.3944,0.632284,-11.3525,12.146,-18.7988
64.984,-2.8405,-10.198,0.958005,-10.8032,12.207,-21.6064
64.989,-3.00815,-9.96328,1.12566,-10.376,12.8784,-24.353
64.994,-3.22369,-9.68066,1.32684,-10.0098,14.0991,-27.0386
64.999,-3.3674,-9.36453,1.50407,-10.1318,15.686,-29.8462
65.004,-3.45841,-9.01965,1.60466,-11.0474,17.7002,-32.4097
65.009,-3.64522,-8.64123,1.69568,-12.5732,19.7754,-35.2783
65.014,-3.78892,-8.33466,1.71484,-14.4043,21.7895,-38.0859
65.02,-3.93262,-8.09516,1.67651,-16.2354,23.4985,-40.8936
65.025,-3.97094,-7.87003,1.65735,-18.0664,24.353,-43.7012
65.03,-3.9949,-7.69281,1.52803,-19.8364,24.292,-46.0815
65.035,-3.86556,-7.61137,1.40827,-21.4844,23.7427,-48.2178
65.04,-3.53984,-7.55868,1.26457,-22.7051,22.8882,-49.9268
65.045,-3.22369,-7.4533,0.962802,-23.6206,22.0337,-50.6592
65.05,-3.13269,-7.41977,0.819096,-23.5596,22.3999,-50.5371
65.055,-3.02251,-7.36229,0.900529,-22.2778,25.8789,-50.5981
65.061,-2.74948,-7.30002,1.12087,-20.0806,32.1045,-50.5981
65.066,-2.53872,-7.36229,1.32684,-19.165,40.9546,-49.6826
65.071,-2.60099,-7.58743,1.44659,-20.0195,51.2695,-48.2178
65.076,-3.00815,-7.81734,1.51365,-20.5078,60.4858,-46.9971
65.081,-3.5111,-7.96104,1.42265,-19.8364,66.2842,-45.6543
65.086,-4.01406,-7.97063,1.43701,-18.0054,68.0542,-44.4336
65.091,-4.36852,-7.95625,1.47054,-15.7471,65.2466,-43.457
65.096,-4.53138,-7.97063,1.48012,-13.9771,59.5703,-43.0908
65.102,-4.54575,-8.06643,1.49928,-12.6343,52.8564,-43.335
65.107,-4.57928,-8.23887,1.42743,-11.2915,46.0815,-43.8232
65.111,-4.69903,-8.39215,1.346,-10.1318,39.6118,-44.2505
65.116,-4.78525,-8.5119,1.24541,-8.8501,33.3862,-44.3115
65.122,-4.92895,-8.61728,1.15919,-7.62939,26.7944,-44.1894
65.127,-4.96248,-8.6556,1.1065,-6.65283,20.3247,-44.2505
65.131,-4.92895,-8.71309,0.981961,-5.79834,13.6108,-44.3726
65.137,-4.77566,-8.78972,0.804724,-5.00488,7.87354,-44.2505
65.142,-4.56491,-8.87594,0.684973,-4.02832,3.96728,-43.457
65.146,-4.43078,-9.00528,0.464631,-3.35693,2.38037,-42.1143
65.151,-4.52659,-9.24956,0.522118,-2.38037,4.08936,-40.5273
65.157,-4.60322,-9.51781,0.675399,-0.549316,7.87354,-39.978
65.162,-4.7134,-9.62319,0.775991,1.46484,11.2915,-40.3442
65.166,-4.81878,-9.75731,0.704132,2.62451,13.1226,-39.7949
65.172,-4.97685,-9.8579,0.469428,3.41797,12.4512,-38.5742
65.177,-5.22115,-9.89143,0.268245,4.57764,8.30078,-37.5977
65.181,-5.40316,-9.83395,0.0814328,5.85938,1.0376,-37.0483
65.186,-5.41753,-9.78126,-0.105379,6.95801,-8.05664,-36.6211
65.192,-5.20198,-9.84832,-0.162866,7.20215,-17.4561,-36.499
65.197,-4.88105,-9.91059,-0.110166,6.7749,-25.8789,-36.7432
65.201,-4.60802,-10.0303,-0.100592,5.92041,-32.4097,-36.5601
65.206,-4.3781,-10.1453,-0.129335,5.24902,-36.438,-35.9497
