t,acc_x,acc_y,acc_z,gyr_x,gyr_y,gyr_z
55.004,-1.3939,11.0075,-2.55788,11.3525,33.5693,-89.2944
55.01,-0.737663,9.41722,-2.32316,8.72803,24.7803,-82.5195
55.014,-1.03944,8.72266,-1.76274,8.11768,14.0381,-76.9653
55.019,-1.64298,8.97175,-1.02985,6.34766,4.63867,-75.1953
55.025,-2.01182,9.44596,-0.675399,4.02832,-1.58691,-76.2329
55.03,-1.89206,9.80042,-0.756822,2.86865,-5.00488,-76.5381
55.035,-1.36037,10.0208,-0.886157,2.50244,-7.38525,-74.8901
55.039,-0.996333,10.0447,-0.847839,2.2583,-9.94873,-72.3267
55.045,-1.08255,9.94412,-0.737663,1.40381,-13.1836,-69.7021
55.049,-1.35559,9.78126,-0.560435,0.549316,-17.5781,-67.3828
55.055,-1.38432,9.6663,-0.354465,-0.549316,-21.8506,-64.6973
55.059,-1.15919,9.48428,-0.263448,-0.854492,-24.353,-62.5
55.065,-0.814308,9.331,-0.411942,-0.244141,-23.9258,-60.6689
55.07,-0.57001,9.12981,-0.627497,1.83106,-21.7895,-59.5093
55.074,-0.651443,9.38847,-0.9149,3.54004,-21.6675,-58.8989
55.08,-0.780778,9.78605,-1.07776,3.72314,-24.9023,-59.6924
55.084,-0.253873,9.87227,-0.934059,3.23486,-27.4048,-61.4624
55.09,0.498162,9.31184,-0.713717,5.43213,-23.9258,-61.7065
55.094,0.488587,8.73703,-0.785565,10.3149,-15.686,-60.2417
55.1,0.100592,8.80888,-0.962802,13.0615,-7.50732,-59.1431
55.104,-0.263448,9.15856,-1.15919,12.6343,-2.19727,-57.8613
55.109,-0.627497,9.44116,-1.36037,11.7798,-0.549316,-55.9692
55.115,-0.560435,9.38847,-1.47534,10.437,-0.976562,-53.5889
55.119,-0.651443,9.06275,-1.5376,10.0098,-1.28174,-50.7812
55.125,-1.04423,8.98612,-1.55676,10.0098,-1.64795,-48.2788
55.129,-1.30768,9.16334,-1.55676,8.54492,-3.66211,-46.2646
55.135,-1.08255,9.29747,-1.48491,6.46973,-6.46973,-44.2505
55.139,-0.996333,9.29747,-1.37474,5.18799,-8.11768,-41.9311
55.144,-1.31726,9.19688,-1.38432,4.69971,-9.27734,-39.3066
55.15,-1.5424,9.19209,-1.14961,4.08936,-11.2915,-36.9263
55.154,-1.57113,9.08191,-0.981961,3.66211,-13.916,-35.4614
55.16,-1.55197,9.01006,-0.986749,4.08936,-15.564,-34.3018
55.164,-1.67651,9.07234,-0.953218,4.76074,-17.8833,-33.3862
55.17,-1.76274,9.14419,-0.890944,5.43213,-21.7895,-32.4097
55.174,-1.85375,9.09628,-0.823883,6.28662,-25.6958,-31.5552
55.18,-1.87291,9.07234,-0.651443,7.50732,-29.2358,-30.7617
55.184,-1.82979,9.15376,-0.555648,8.8501,-31.9824,-30.0293
55.19,-1.85375,9.11065,-0.617912,9.8877,-34.0576,-29.541
55.195,-1.72921,9.10107,-0.895741,11.2915,-35.5225,-29.2969
55.199,-1.50887,9.20166,-1.15919,12.146,-36.377,-28.6865
55.205,-1.24541,9.22082,-1.36516,12.085,-37.3535,-28.0151
55.209,-1.03944,9.20646,-1.53281,11.9629,-37.9639,-27.5269
55.215,-0.847839,9.23041,-1.68609,11.3525,-36.6821,-26.6724
55.219,-0.785565,9.23041,-1.75315,10.6812,-34.1187,-25.3906
55.225,-0.804724,9.18729,-1.73878,9.82666,-30.6396,-24.4751
55.229,-0.910103,9.00528,-1.71004,8.8501,-27.4658,-23.6206
55.234,-1.00112,8.89031,-1.78669,9.21631,-24.231,-23.0103
55.24,-1.14482,9.08191,-1.71004,8.78906,-21.6675,-21.8506
55.244,-1.2023,9.10587,-1.61903,8.23975,-19.9585,-21.2402
55.25,-1.24062,9.28788,-1.51844,7.75146,-19.043,-20.874
55.254,-1.23583,9.39327,-1.49928,6.89697,-18.4326,-20.5078
55.26,-1.08734,9.50344,-1.55676,5.92041,-18.4326,-20.5688
55.264,-0.886157,9.52738,-1.65735,4.69971,-18.5547,-20.5078
55.269,-0.775991,9.35974,-1.76274,4.08936,-18.2495,-20.9961
55.275,-0.641868,9.08671,-1.73878,4.08936,-17.395,-21.8506
55.28,-0.560435,8.91906,-1.70047,4.63867,-15.0757,-23.1323
55.285,-0.565223,8.96216,-1.57113,5.43213,-12.085,-24.7803
55.29,-0.82868,9.12981,-1.46096,5.5542,-8.30078,-26.4893
55.295,-1.36516,9.38847,-1.41306,5.12695,-5.49316,-27.771
55.3,-1.55197,9.5226,-1.25978,3.96728,-4.45557,-28.6255
55.305,-1.30768,9.5226,-1.16398,3.35693,-4.3335,-29.2969
55.31,-0.977164,9.41722,-1.18314,4.08936,-3.23486,-30.5176
55.316,-0.713717,9.28788,-1.2981,5.00488,-0.183105,-32.4097
55.321,-0.689771,9.35494,-1.50407,4.88281,3.05176,-34.6069
55.326,-1.01069,9.46512,-1.70525,3.35693,5.06592,-36.6821
55.331,-1.34121,9.65672,-1.75315,1.15967,4.82178,-38.6353
55.336,-1.38912,9.83395,-1.70525,-0.671387,3.35693,-40.5273
55.341,-1.19272,9.7142,-1.71962,-2.07519,2.07519,-42.1753
55.346,-1.03944,9.54655,-1.89206,-2.99072,0.793457,-43.9453
55.351,-1.11129,9.53218,-2.0214,-3.479,-0.244141,-46.2646
55.357,-1.26457,9.49865,-1.84416,-4.94385,-1.95312,-49.0723
55.362,-1.2023,9.33578,-1.65256,-6.5918,-2.99072,-51.8188
55.367,-1.09213,9.38847,-1.56156,-6.95801,-2.62451,-54.3213
55.372,-0.905316,9.46512,-1.57593,-7.50732,-1.52588,-57.373
55.377,-0.771194,9.46991,-1.71484,-8.8501,0.732422,-60.4248
55.382,-0.934059,9.45075,-1.90165,-10.5591,2.74658,-63.9038
55.387,-1.27415,9.52738,-1.81543,-12.3901,3.05176,-67.0776
55.392,-1.42265,9.44596,-1.55197,-14.4653,2.44141,-69.7632
55.398,-1.25978,9.70941,-1.43701,-15.3809,1.89209,-72.5098
55.403,-1.32684,9.87227,-1.55197,-17.0288,2.13623,-75.5005
55.408,-1.41785,10.0974,-1.64298,-18.5547,3.54004,-78.6133
55.413,-1.74357,10.3034,-1.61903,-19.4092,4.82178,-81.1767
55.418,-2.28963,10.6626,-1.48012,-19.5312,5.24902,-82.4585
55.423,-2.63931,10.8159,-1.31247,-20.3857,4.3335,-84.2285
55.428,-2.65368,10.8303,-1.24062,-21.4844,2.56348,-85.2051
55.433,-2.43813,10.8782,-1.23583,-22.644,0.976562,-86.5478
55.438,-2.47166,10.9021,-1.15919,-23.6816,0.244141,-88.1958
55.444,-2.70159,11.0554,-0.943634,-24.7803,-0.793457,-89.7217
55.449,-2.55788,11.1321,-0.775991,-26.7944,-1.95312,-90.9424
55.454,-2.36149,11.3955,-0.603541,-28.5034,-2.44141,-92.3462
55.459,-2.37107,11.544,-0.723291,-29.9072,-2.62451,-94.1162
55.464,-2.48124,11.9128,-0.986749,-30.8228,-3.23486,-96.3745
55.469,-2.20821,12.1427,-0.866998,-32.4707,-3.2959,-98.938
55.474,-2.13157,12.4924,-0.723291,-34.2407,-3.17383,-100.769
55.479,-2.20821,12.6649,-0.96759,-36.1328,-3.05176,-102.844
55.484,-2.11241,13.0481,-1.09691,-37.5977,-2.44141,-105.774
55.49,-2.07409,13.1534,-1.16877,-40.2832,-1.83106,-108.459
55.495,-2.09804,13.3067,-1.14003,-42.2974,-2.13623,-111.206
55.5,-2.37107,13.5127,-1.18314,-44.2505,-3.35693,-113.586
55.504,-2.52435,13.9342,-1.24062,-46.2646,-5.61523,-116.028
55.51,-2.43813,14.533,-1.27415,-49.0723,-8.30078,-118.835
55.514,-2.16988,14.8108,-1.40348,-53.0395,-11.0474,-121.643
55.52,-1.70525,15.0551,-1.71484,-57.0068,-13.7329,-123.901
55.525,-1.25499,15.309,-1.99266,-60.5469,-16.4185,-126.404
55.53,-1.18314,15.6155,-2.0693,-63.9038,-18.8599,-129.028
55.535,-1.15919,15.9748,-2.20341,-67.2607,-21.9727,-132.996
55.539,-1.10171,16.1664,-2.80696,-70.2515,-27.2827,-137.085
55.545,0.114963,15.7017,-3.05604,-72.3267,-35.0342,-141.174
55.549,0.838255,15.9029,-2.71116,-72.0215,-40.4663,-145.508
55.555,0.752035,16.6502,-1.96871,-73.2422,-44.0674,-151.001
55.559,0.900529,17.6657,-1.36995,-75.8667,-47.0581,-155.701
55.565,1.7771,18.7195,-0.876573,-78.8574,-50.415,-159.668
55.57,2.51956,19.2033,-0.637071,-82.0923,-53.9551,-163.757
55.574,3.40572,19.2895,-0.613125,-84.6558,-57.0679,-168.823
55.58,4.50743,19.3134,-0.862211,-86.5478,-59.2041,-173.584
55.584,4.96727,19.4284,-0.876573,-88.7451,-60.3638,-177.978
55.59,5.11097,19.2512,-1.17356,-91.0644,-62.6831,-181.335
55.594,5.00559,18.8536,-1.23583,-93.0176,-67.3218,-184.57
55.6,5.1445,18.3075,-1.24062,-94.3603,-72.876,-187.317
55.604,5.16366,17.613,-1.36516,-94.6655,-78.2471,-189.941
55.609,3.76976,16.5927,-1.21667,-93.6279,-79.834,-192.2
55.615,2.42376,15.1509,-1.03944,-92.7734,-73.7305,-197.083
55.619,0.996333,14.5905,-1.5376,-90.3931,-60.3638,-202.942
55.625,0.124538,14.3797,-2.10762,-87.9517,-40.9546,-208.313
55.629,-0.354465,14.2599,-2.49082,-85.9375,-21.7285,-211.06
55.635,-0.79515,13.6756,-2.8836,-83.9844,-5.37109,-209.778
55.639,-0.761619,12.4445,-3.32907,-80.8716,8.23975,-205.811
55.644,-0.752035,10.9261,-3.82724,-75.5615,20.9351,-199.036
55.65,-0.756822,10.0064,-4.426,-69.0308,37.3535,-188.843
55.655,-0.689771,9.81958,-4.47869,-64.3311,62.3779,-175.293
55.66,-0.96759,10.2746,-3.3195,-61.1572,88.8061,-162.842
55.664,-1.62382,9.5705,-3.54941,-55.4199,110.962,-154.358
55.67,-1.82022,8.65081,-3.13269,-48.1567,118.103,-147.4
55.674,-1.43222,8.39215,-2.53872,-44.4946,111.755,-143.127
55.68,-1.71484,8.26282,-1.81543,-43.335,102.478,-138.977
55.684,-2.49082,7.86525,-1.19751,-43.396,92.5293,-133.911
55.69,-2.692,7.10363,-0.752035,-44.9829,80.4443,-124.451
55.695,-2.53393,6.09772,0.31135,-47.9126,65.3687,-110.779
55.699,-2.82134,4.97685,1.01069,-51.3306,48.8281,-93.1396
55.705,-2.57225,4.89542,-0.507746,-49.0723,36.3159,-75.6226
55.709,-1.41306,4.89542,-2.75428,-44.9219,33.2031,-58.0444
55.715,0.661027,4.86189,-3.21412,-38.8184,34.6069,-45.7153
55.719,2.68243,4.72777,-2.26569,-35.5835,35.7666,-35.8276
55.725,3.15663,4.11465,-2.04056,-34.1797,33.8745,-23.0103
55.729,2.89318,3.45841,-2.38544,-32.2266,34.0576,-9.15527
55.734,2.77343,2.87403,-2.49561,-30.4565,35.8887,3.54004
55.74,2.81175,2.38065,-2.62015,-28.5645,36.2549,14.8315
55.744,2.9794,2.17468,-2.72553,-27.4048,36.3159,25.3296
55.75,3.18538,2.213,-2.5483,-27.4658,37.9639,36.2549
55.754,3.14706,2.41418,-2.20341,-28.7476,40.9546,47.4853
55.76,2.80696,2.56267,-1.93518,-31.0059,44.9829,58.4717
55.764,2.4046,2.56746,-1.95434,-33.0811,51.1475,68.3594
55.769,1.87291,2.59141,-1.9256,-34.0576,58.5327,77.5146
55.775,1.2502,2.77343,-1.80106,-34.1797,64.7583,86.7309
55.78,0.74246,2.91713,-1.81063,-34.3018,69.7632,96.2524
55.785,0.354465,3.03209,-2.00703,-34.5459,73.9746,106.018
55.789,0.0814328,3.31471,-2.04535,-34.4238,77.2705,116.272
55.795,-0.148494,3.45362,-2.12199,-35.5225,78.7964,126.282
55.799,-0.17244,3.62606,-2.20821,-36.499,79.4678,135.681
55.805,-0.0958045,3.85119,-2.26569,-37.2314,80.9936,145.02
55.809,-0.0670612,3.9901,-2.28485,-37.7808,82.9468,154.541
55.815,-0.100592,4.10028,-2.41897,-37.8418,84.9609,164.062
55.82,-0.182025,4.28229,-2.45729,-37.9028,86.6089,173.767
55.824,-0.229927,4.47869,-2.43334,-38.208,88.0127,183.228
55.83,-0.287404,4.58885,-2.52435,-38.3301,88.7451,192.322
55.834,-0.330509,4.77088,-2.57225,-37.7197,89.2334,201.294
55.84,-0.407154,4.905,-2.6489,-37.0483,88.501,210.083
55.844,-0.387995,5.14929,-2.74948,-36.0718,87.4634,218.201
55.85,-0.421526,5.48938,-2.91713,-34.9731,86.6699,226.44
55.854,-0.373624,5.78157,-3.05604,-33.6914,85.6934,234.619
55.859,-0.378411,6.15041,-3.22849,-31.9214,84.6558,242.798
55.865,-0.479003,6.52882,-3.32907,-29.7241,83.0078,250.854
55.869,-0.502959,6.90724,-3.50152,-27.71,80.8105,258.362
55.875,-0.526905,7.31918,-3.60211,-25.5127,79.2236,265.381
55.879,-0.680186,7.67843,-3.76497,-23.0713,77.6978,272.583
55.885,-0.689771,7.96584,-3.89909,-20.2637,75.2563,279.968
55.889,-0.584382,8.29635,-4.06675,-17.0898,73.5474,286.804
55.895,-0.584382,8.74662,-4.10028,-13.916,71.8384,293.274
55.9,-0.546064,9.22082,-4.2344,-10.8032,70.1294,299.5
55.905,-0.479003,9.78605,-4.40204,-7.44629,69.0308,305.481
55.91,-0.411942,10.4567,-4.37331,-4.3335,68.1763,310.852
55.914,-0.292191,11.1368,-4.38288,-1.70898,67.1997,315.613
55.92,-0.201183,11.6302,-4.4739,1.0376,67.8711,319.885
55.924,-0.273032,12.114,-4.517,4.69971,70.4956,323.853
55.93,-0.253873,12.6218,-4.86668,9.33838,73.3643,327.576
55.934,-0.349677,13.1966,-5.13493,14.4043,76.6602,331.177
55.94,-0.296978,13.9103,-5.21635,18.5547,79.1016,334.29
55.945,-0.479003,14.8012,-5.40796,22.2168,80.2002,337.219
55.949,-0.819096,15.7688,-5.61393,25.0854,81.4209,339.6
55.955,-1.36037,16.7939,-5.82469,28.1372,83.1299,340.881
55.959,-2.09325,17.6992,-6.30369,31.9214,86.4258,341.431
55.965,-2.9794,18.4991,-6.85454,37.2314,92.041,341.064
55.969,-3.97573,19.2943,-7.54431,44.4946,100.037,340.149
55.975,-4.95769,20.1709,-8.20055,52.7344,108.398,338.867
55.979,-6.07377,21.1145,-8.8999,60.9741,115.845,337.036
55.984,-7.32876,21.8426,-9.65193,68.7256,121.704,334.595
55.99,-8.68434,22.3168,-10.3369,76.1719,123.84,331.299
55.994,-9.92975,22.5659,-10.8734,82.5195,120.605,327.087
56,-11.0458,22.6856,-11.1416,88.8061,111.572,321.411
56.004,-12.1475,22.6377,-10.9883,94.1772,97.4121,315.002
56.01,-13.2972,22.5419,-10.6147,99.4873,78.0029,307.495
56.014,-14.624,22.518,-9.97765,105.53,54.3213,297.485
56.02,-15.9748,22.3647,-9.00528,112.427,27.6489,284.973
56.025,-17.3208,21.7564,-7.86046,119.568,0.366211,271.606
56.03,-18.9542,20.578,-6.45218,123.23,-27.5879,261.597
56.035,-19.9697,18.9159,-4.77088,118.652,-61.0962,254.7
56.039,-20.4678,16.358,-3.66917,107.666,-98.8769,249.451
56.045,-20.9277,14.236,-2.86923,98.8159,-133.423,240.601
56.049,-21.6797,13.3977,-2.62494,92.7734,-163.757,223.755
56.055,-22.0486,13.4265,-2.46687,85.8154,-190.735,201.05
56.059,-22.1875,13.4696,-2.14594,74.8901,-212.28,178.162
56.065,-22.4078,13.3115,-1.78669,62.3779,-225.83,155.09
56.07,-22.0869,13.2109,-1.54718,51.3916,-228.699,128.784
56.074,-20.9516,13.9103,-1.21667,43.0908,-220.093,98.5107
56.08,-19.5625,14.3557,-0.775991,34.3628,-201.904,66.5894
56.085,-18.0201,15.1844,-0.622709,27.832,-177.856,34.5459
56.09,-16.1808,16.6741,-0.627497,23.2544,-151.062,5.43213
56.095,-14.8827,17.3016,-0.234714,15.0757,-124.573,-19.7754
56.1,-14.6336,16.0849,0.368836,4.02832,-101.44,-42.0532
56.105,-14.4084,14.0252,1.42265,-6.46973,-82.0923,-61.5234
56.11,-13.9342,12.6649,2.05013,-13.916,-63.8428,-79.895
56.115,-13.8097,16.5544,-1.14482,-6.10351,-46.2646,-103.699
56.121,-9.22082,17.225,3.35303,-6.28662,-36.8042,-126.465
56.126,-4.98643,11.4147,8.44963,-31.4941,-31.3721,-127.38
56.131,-0.407154,9.39806,7.07488,-36.0718,7.20215,-139.343
56.136,6.08335,8.92384,6.8306,-34.668,57.1899,-129.395
56.141,14.533,10.083,9.00048,-34.79,84.8389,-103.882
56.146,23.9646,12.5451,11.3093,-37.4146,96.7407,-89.2944
56.151,31.1975,12.8708,13.4361,-41.9922,106.018,-78.7964
56.156,33.5446,10.4183,13.642,-37.1704,124.817,-70.7397
56.162,24.9896,6.60068,10.6291,-18.1885,155.762,-68.2983
56.167,9.58008,5.85343,7.45809,1.52588,188.538,-72.5098
56.172,1.06338,9.46991,8.04727,10.376,199.036,-83.9233
56.177,-2.85965,15.1844,7.28565,16.4795,189.087,-104.248
56.182,-6.95513,17.3112,5.02954,17.5781,195.679,-124.268
56.187,-8.63165,16.3101,1.96391,19.5312,201.477,-138.184
56.192,-9.02443,14.6671,-1.17356,27.1606,186.279,-138.916
56.197,-6.91203,14.5905,-1.69568,33.4473,150.085,-129.944
56.202,-5.21156,14.5761,-1.34121,32.6538,110.474,-120.117
56.208,-4.67987,13.8815,0.119751,29.7241,83.5571,-118.042
56.213,-5.13493,12.8086,2.21779,22.4609,58.2886,-114.624
56.218,-5.56603,11.5584,2.6441,16.2354,33.9966,-109.375
56.223,-4.52659,10.8782,1.1544,16.2964,13.2446,-102.966
56.228,-1.67651,11.0075,-1.18314,19.043,-6.10351,-97.7783
56.233,1.3939,11.0123,-3.44404,18.9209,-19.5312,-95.3979
56.238,1.93997,9.62798,-5.72888,16.6626,-18.8599,-94.9707
56.243,0.0479022,7.46288,-7.45809,14.8926,-10.5591,-98.0835
56.249,-1.74357,6.77791,-7.93709,13.3057,-2.07519,-102.051
56.254,-2.03097,7.85566,-7.15153,7.69043,5.92041,-104.736
56.259,-1.68131,8.62686,-6.27974,-2.99072,16.8457,-102.905
56.264,-0.948431,8.65081,-5.67141,-12.8174,28.1372,-99.4263
56.269,-0.00478728,8.15265,-4.86189,-18.0664,34.1187,-94.8486
56.274,0.325721,7.58263,-3.96615,-21.3623,32.5317,-89.1724
56.279,-0.13891,7.41019,-2.8884,-23.9868,26.4893,-84.0454
56.285,-0.924475,7.98021,-1.76753,-26.001,20.3247,-81.1157
56.289,-1.78669,8.9909,-0.871785,-27.71,16.1743,-79.9561
56.295,-2.20341,9.88185,-0.756822,-28.2593,11.6577,-80.6274
56.299,-1.59029,10.5429,-0.689771,-27.1606,6.04248,-83.2519
56.305,-0.871785,10.9452,-0.148494,-25.6958,3.2959,-84.9609
56.309,-1.01069,10.2411,0.387995,-22.522,2.80762,-83.8013
56.315,-1.64298,9.48428,0.838255,-17.395,1.09863,-83.1909
56.32,-1.79147,9.96328,1.1544,-12.5732,-2.92969,-82.4585
56.324,-1.5424,11.4626,1.08255,-11.1694,-5.98144,-77.4536
56.33,-1.44659,11.338,0.646656,-11.5967,-7.62939,-72.5708
56.334,-0.708929,9.83874,0.306563,-5.79834,-8.48389,-76.416
56.34,0.110166,9.9058,-0.153281,0.854492,-6.95801,-80.3833
56.344,0.474215,9.91538,-0.732876,5.00488,-3.66211,-82.5195
56.35,0.464631,9.422,-1.22146,6.89697,-1.77002,-83.1909
56.354,0.622709,9.1394,-1.6334,7.75146,0.061035,-82.9468
56.359,0.340093,8.96696,-2.09804,6.71387,2.50244,-80.1392
56.365,0.162866,8.53585,-2.4525,4.76074,5.18799,-77.8809
56.369,-0.416729,8.13349,-2.68721,3.41797,7.93457,-74.8291
56.375,-1.41785,8.13828,-2.51956,1.77002,8.36182,-71.167
56.379,-2.11719,8.32509,-2.39981,-0.366211,6.04248,-67.3218
56.385,-2.55309,8.51669,-2.34712,-2.07519,2.62451,-63.2935
56.389,-2.213,8.87594,-2.16988,-3.2959,-1.77002,-59.8755
56.395,-1.95434,8.95737,-1.93038,-4.88281,-5.06592,-56.3965
56.4,-1.86812,8.86637,-1.65256,-5.61523,-6.10351,-53.1616
56.405,-1.98787,9.01965,-1.42743,-5.85938,-6.5918,-50.4761
56.41,-1.9735,9.35974,-1.14003,-6.10351,-7.56836,-48.2788
56.414,-1.95434,9.40763,-0.934059,-5.79834,-7.62939,-45.7764
56.42,-1.98787,9.49865,-0.905316,-4.39453,-7.38525,-43.0908
56.424,-2.13157,9.49865,-0.9149,-3.60107,-8.23975,-40.6494
56.43,-2.15552,9.52738,-0.823883,-2.80762,-10.2539,-38.6963
56.434,-2.0214,9.52738,-0.517321,-2.2583,-13.0005,-36.9263
56.44,-1.94954,9.64713,-0.392783,-1.2207,-15.7471,-35.5225
56.445,-1.71484,9.80042,-0.416729,0.244141,-18.3716,-34.9121
56.449,-1.43222,9.87227,-0.684973,1.09863,-20.2026,-34.3018
56.455,-1.36516,9.75252,-1.13524,1.0376,-22.2168,-33.7524
56.459,-1.25978,9.36453,-1.43222,0.793457,-25.1465,-33.7524
56.465,-1.27894,9.20166,-1.49449,0.854492,-27.4048,-33.7524
56.469,-1.3939,9.17772,-1.52803,0.793457,-28.3813,-33.5693
56.475,-1.50887,9.18729,-1.49928,0,-28.6865,-33.4473
56.479,-1.50407,9.14419,-1.56156,-0.854492,-28.7476,-33.0811
56.484,-1.56156,9.14897,-1.61903,-1.0376,-28.1982,-32.959
56.49,-1.50887,9.23519,-1.65256,-1.40381,-27.5269,-31.9824
56.494,-1.51844,9.25915,-1.75794,-1.77002,-27.1606,-30.7617
56.5,-1.60466,9.45554,-1.734,-2.38037,-27.4658,-29.3579
56.504,-1.62382,9.50344,-1.66693,-3.41797,-28.0762,-28.6255
56.51,-1.57593,9.4268,-1.59029,-4.15039,-27.9541,-28.0762
56.514,-1.60946,9.36453,-1.51365,-4.82178,-27.771,-27.1606
56.52,-1.59029,9.38369,-1.35079,-5.43213,-27.2217,-26.6724
56.525,-1.57593,9.25435,-1.20709,-5.79834,-26.062,-26.001
56.53,-1.69568,9.23519,-1.14482,-5.92041,-24.292,-25.6348
56.535,-1.73878,9.331,-1.13045,-5.92041,-22.644,-25.3296
56.539,-1.74357,9.35016,-1.07776,-6.16455,-21.2402,-25.1465
56.545,-1.64778,9.19688,-1.14482,-6.46973,-19.6533,-25.0854
56.549,-1.63819,9.25435,-1.25499,-6.22558,-18.2495,-25.0244
56.555,-1.64298,9.32621,-1.39869,-6.16455,-16.9678,-25.5127
56.559,-1.66693,9.31663,-1.41306,-6.34766,-16.1743,-26.3061
56.565,-1.67651,9.34057,-1.3939,-6.46973,-16.1133,-26.7334
56.57,-1.66215,9.31184,-1.41306,-6.89697,-15.5029,-27.1606
56.574,-1.64298,9.46512,-1.28852,-6.83594,-14.9536,-27.832
56.58,-1.48012,9.39327,-1.31247,-6.89697,-13.6108,-29.0527
56.584,-1.55676,9.23999,-1.2981,-7.50732,-12.2681,-29.7241
56.59,-1.69088,9.26872,-1.20709,-7.32422,-11.1084,-30.7007
56.594,-1.67651,9.23999,-0.96759,-6.95801,-9.0332,-32.0435
56.6,-1.59029,9.07712,-0.694558,-6.71387,-6.46973,-33.4473
56.604,-1.41785,8.93821,-0.689771,-6.65283,-3.84522,-35.0952
56.609,-1.24541,8.97653,-0.866998,-6.83594,-1.40381,-37.1704
56.615,-1.32684,9.19688,-1.00112,-7.14111,1.34277,-39.7339
56.619,-1.38912,9.3789,-1.21188,-8.23975,2.86865,-42.2363
56.625,-1.44181,9.55134,-1.40348,-9.33838,3.17383,-44.4336
56.629,-1.55676,9.68546,-1.59509,-10.1929,2.50244,-46.6919
56.635,-1.53281,9.65193,-1.62382,-11.2915,1.77002,-49.1943
56.639,-1.2023,9.58966,-1.52803,-12.8784,1.83106,-52.063
56.645,-1.35559,9.64713,-1.52323,-13.916,3.17383,-54.9927
56.65,-1.7771,10.0256,-1.49449,-14.9536,3.84522,-57.4341
56.655,-1.95913,10.1118,-1.51844,-16.9067,4.15039,-59.5703
56.66,-2.02619,10.1836,-1.59509,-18.2495,3.17383,-61.3403
56.664,-1.98787,10.3034,-1.59509,-19.5923,1.64795,-63.4155
56.67,-1.93038,10.3465,-1.2981,-21.3623,-0.427246,-66.4062
56.674,-1.74357,10.2555,-1.15919,-22.8271,-0.732422,-68.9087
56.68,-1.9256,10.6722,-0.9149,-24.231,-0.732422,-70.9229
56.684,-2.27527,11.0075,-1.12087,-26.1841,-1.34277,-73.8525
56.69,-2.04056,11.1081,-1.33163,-27.71,-2.2583,-76.4771
56.695,-1.84416,11.3668,-0.728088,-29.7241,-3.35693,-78.064
56.699,-1.93038,11.3476,-0.435898,-31.9214,-4.02832,-80.8105
56.705,-1.92081,11.2374,-0.632284,-33.8135,-2.2583,-83.8623
56.709,-2.07888,11.8314,-0.689771,-35.5835,-0.854492,-86.3037
56.715,-2.14115,12.1907,-0.886157,-38.269,-0.244141,-88.3789
56.719,-2.33754,12.3631,-1.1065,-40.5884,-0.854492,-90.8203
56.725,-2.24653,12.5116,-1.11608,-42.4194,-2.01416,-92.5293
56.729,-2.13635,12.6744,-1.09213,-44.2505,-3.05176,-94.0552
56.734,-2.08366,12.8229,-1.17356,-46.7529,-4.02832,-96.4355
56.74,-2.22258,13.254,-1.28852,-49.2554,-5.12695,-99.0601
56.744,-2.35191,13.6133,-1.33163,-52.4292,-6.95801,-101.501
56.75,-2.03097,13.9438,-1.5424,-55.7251,-9.09424,-103.638
56.754,-1.66693,14.4084,-1.67172,-59.2041,-10.9253,-106.812
56.76,-1.52803,14.7868,-1.72921,-63.1714,-12.8784,-111.023
56.764,-1.24541,15.0263,-1.79626,-66.7114,-13.7329,-115.356
56.77,-0.895741,15.3664,-1.73878,-70.0684,-14.0991,-119.812
56.775,-0.627497,15.8838,-1.73878,-73.7915,-15.1978,-124.634
56.78,-0.249086,16.3149,-1.85853,-77.7588,-16.9067,-129.578
56.785,0.191599,16.7699,-1.77231,-81.3599,-18.7988,-134.827
56.789,0.689771,17.0573,-1.5424,-84.5947,-20.6299,-140.869
56.795,0.96759,17.3064,-1.05381,-87.4023,-22.0337,-146.606
56.799,1.36995,17.498,-0.512533,-90.7593,-23.5596,-151.855
56.805,2.0645,17.9243,-0.134122,-93.9331,-25.3296,-157.104
56.809,2.5483,18.6093,0.205971,-98.2666,-26.4282,-162.476
56.815,2.91713,19.2416,0.167653,-103.516,-29.1138,-167.053
56.82,3.56379,19.9122,-0.22513,-108.826,-32.1655,-171.57
56.824,4.7134,20.4008,-0.665815,-113.525,-35.3394,-175.842
56.83,5.63788,21.1337,-1.02028,-117.187,-38.3301,-181.335
56.834,5.73847,21.3971,-1.03465,-121.826,-42.3584,-186.645
56.84,5.89175,20.9516,-1.40827,-126.038,-47.9736,-189.575
56.844,6.60068,20.5541,-1.98307,-127.93,-55.542,-192.078
56.85,6.50966,19.6535,-2.00224,-128.052,-58.4717,-195.068
56.854,5.8151,18.068,-1.90644,-127.136,-52.3682,-198.73
56.859,4.68944,16.4825,-2.05493,-124.939,-37.7197,-202.881
56.865,3.44883,15.8454,-2.79738,-121.521,-14.8926,-207.947
56.869,2.25132,15.3712,-3.04647,-120.117,11.3525,-213.684
56.875,1.59987,14.4659,-3.41051,-118.53,35.9497,-216.736
56.879,1.15919,13.7235,-3.50152,-114.38,55.481,-215.088
56.885,0.65624,12.2864,-3.9422,-109.497,71.7773,-211.304
56.89,0.517321,10.8447,-4.04759,-104.065,86.1816,-205.627
56.895,0.737663,9.73815,-4.30625,-99.0601,100.647,-195.984
56.9,1.50407,8.97175,-4.34456,-94.7876,118.286,-182.495
56.905,1.45138,8.78493,-3.92304,-90.332,140.381,-166.748
56.91,0.364039,7.597,-5.12534,-80.9936,168.457,-151.855
56.915,-0.507746,7.32397,-3.80329,-71.7163,179.077,-138.184
56.92,-1.06818,7.49162,-2.41897,-69.458,172.485,-129.7
56.926,-1.57113,7.28565,-1.5424,-71.167,163.574,-125.061
56.931,-2.20821,7.21859,-0.799937,-73.4863,154.663,-121.277
56.936,-2.40939,7.0701,-0.186812,-76.1719,143.372,-114.319
56.941,-2.44292,6.4474,0.88137,-81.3599,132.874,-102.173
56.946,-2.92672,5.4319,1.1544,-86.3037,127.502,-85.022
56.951,-2.78781,5.16845,-1.02985,-85.144,128.113,-68.9087
56.956,-0.651443,5.36006,-3.91346,-79.6509,136.292,-54.0771
56.961,2.32796,5.18282,-4.84273,-75.2563,149.353,-39.4287
56.966,3.29555,4.5218,-4.38768,-72.0215,155.273,-24.1699
56.972,2.52435,4.01884,-4.51222,-66.5283,150.879,-10.8032
56.977,2.07888,3.86077,-4.94332,-61.5234,145.325,0.366211
56.982,1.99266,3.61169,-5.24988,-59.9365,139.954,10.0098
56.987,2.05013,2.96982,-5.36484,-60.3638,133.24,19.3481
56.992,2.23694,2.51956,-5.16366,-61.2793,124.512,30.3345
56.997,2.32316,2.37586,-4.96727,-63.1103,114.563,43.2739
57.002,2.25132,2.43334,-4.68944,-66.2231,106.506,55.8472
57.007,2.08846,2.43334,-4.54575,-70.5566,101.99,66.6504
57.013,1.78669,2.34233,-4.49785,-74.5239,99.4873,76.2939
57.018,1.47054,2.42855,-4.48347,-77.3315,98.8769,86.1816
57.023,1.02507,2.65847,-4.426,-79.4678,99.6094,96.4355
57.028,0.373624,3.03209,-4.33978,-81.4819,100.769,106.689
57.033,-0.253873,3.38177,-4.33019,-83.6792,101.074,116.577
57.038,-0.819096,3.69312,-4.426,-85.022,100.769,126.099
57.043,-1.22625,3.98053,-4.60802,-86.1206,100.281,135.193
57.049,-1.35079,4.15297,-4.7134,-87.0361,100.22,144.226
57.054,-1.35559,4.33978,-4.79004,-87.3413,100.22,153.137
57.059,-1.32205,4.4739,-4.87147,-87.2803,100.098,161.621
57.064,-1.27415,4.57449,-5.0008,-87.1582,100.342,169.922
57.069,-1.23583,4.72777,-5.15409,-86.5478,100.403,178.101
57.074,-1.22146,4.86189,-5.32653,-85.6934,99.7314,185.852
57.079,-1.14961,5.1014,-5.47022,-84.2895,98.7549,193.665
57.084,-1.18314,5.30257,-5.45106,-83.313,97.5952,201.904
57.09,-1.14482,5.44149,-5.52291,-82.5806,95.7031,210.022
57.094,-1.0586,5.60913,-5.6235,-80.5054,94.1772,218.14
57.1,-0.96759,5.86301,-5.72888,-77.3926,93.1396,225.83
57.104,-0.871785,6.1073,-5.84385,-73.9746,92.4683,233.215
57.109,-0.771194,6.45697,-6.09772,-69.9463,91.98,240.54
57.115,-0.752035,6.86413,-6.27016,-65.4297,91.98,247.864
57.119,-0.948431,7.12758,-6.43303,-61.0352,91.0644,254.822
57.125,-1.02028,7.48684,-6.67253,-56.1523,89.7827,260.986
57.129,-1.11608,7.89878,-6.89287,-51.3306,89.0503,267.395
57.135,-1.20709,8.19575,-7.05572,-46.1426,88.3179,273.926
57.139,-1.23583,8.44484,-7.30002,-40.6494,87.2803,280.029
57.145,-1.14482,8.79931,-7.46767,-35.0342,85.9375,285.828
57.15,-1.06818,9.23041,-7.52515,-29.1748,85.2051,291.504
57.155,-1.04902,9.69504,-7.6449,-23.4985,84.7778,296.936
57.16,-1.03465,10.2794,-7.7455,-18.4326,83.1909,302.246
57.164,-1.11129,10.8878,-7.70238,-13.4277,81.3599,306.824
57.17,-1.28373,11.3668,-7.69281,-7.8125,82.0312,310.791
57.174,-1.45138,11.8649,-7.70718,-1.83106,82.8247,314.575
57.18,-1.60466,12.5212,-7.55868,4.02832,82.3364,317.627
57.184,-1.76274,13.2061,-7.4533,9.58252,82.4585,319.824
57.19,-2.01182,13.8145,-7.43415,14.8926,84.7778,321.533
57.195,-2.39981,14.418,-7.37187,20.5688,88.1958,322.693
57.199,-2.85965,15.0695,-7.40061,26.6724,92.3462,322.998
57.205,-3.38177,15.7113,-7.48204,32.7148,97.29,322.754
57.209,-3.90868,16.2861,-7.63053,39.2456,103.027,321.655
57.215,-4.34935,16.8418,-7.71196,46.2646,110.535,319.763
57.219,-4.91937,17.1627,-7.94668,53.894,119.507,317.627
57.225,-5.60435,17.4549,-8.04247,61.9507,128.052,315.552
57.229,-6.42823,17.8189,-8.00894,69.3359,133.301,313.477
57.234,-7.23296,18.0441,-7.99937,75.1343,134.766,311.401
57.24,-7.75987,18.1159,-8.04247,79.5288,133.179,308.96
57.244,-8.49753,18.3075,-7.97063,83.6182,128.784,306.03
57.25,-9.44596,18.7338,-7.66406,87.5244,120.911,301.575
57.254,-10.5764,19.1314,-7.18506,90.21,108.887,296.326
57.26,-11.7452,19.5098,-6.54798,91.9189,92.2241,291.199
57.264,-12.7128,19.8547,-5.93965,92.5293,72.2656,284.241
57.27,-13.6229,19.9266,-5.5804,93.2007,52.3682,275.269
57.275,-14.3366,19.62,-5.38879,95.3369,34.9731,265.442
57.28,-15.2563,19.2368,-5.17324,98.5107,17.5171,255.188
57.285,-16.1137,18.3315,-5.03912,98.0835,-2.19727,245.483
57.289,-17.043,16.7747,-5.05828,94.1162,-22.3999,240.173
57.295,-17.5507,15.7449,-5.00559,90.5762,-40.6494,232.361
57.299,-18.2405,15.4527,-4.66071,86.6089,-56.6406,219.177
57.305,-19.0165,15.8454,-4.22003,81.3599,-73.8525,200.867
57.309,-19.8547,16.0514,-3.61648,73.4863,-89.4165,179.504
57.315,-20.4008,15.7065,-2.90756,65.3076,-98.1445,156.128
57.32,-21.1145,15.4048,-1.99266,58.3496,-100.159,131.836
57.324,-21.4354,14.7294,-0.962802,51.6357,-95.2148,105.225
57.33,-20.9852,14.6432,0.0431149,46.2646,-84.4726,77.2095
57.334,-20.3002,14.8587,1.12087,40.0391,-71.167,49.7436
57.34,-18.9781,14.8683,1.5376,31.9214,-56.6406,22.4609
57.344,-17.2968,15.1126,1.40827,25.0854,-39.917,-4.57764
57.35,-15.5054,15.0263,1.29331,18.1885,-19.7144,-30.3345
57.354,-14.4851,16.0658,0.493374,13.1226,-0.488281,-54.5044
57.359,-12.7846,21.4163,-0.153281,19.9585,8.17871,-86.1816
57.365,-11.6542,15.2467,3.98053,3.23486,9.58252,-110.596
57.369,-11.0842,10.4614,5.40316,-7.62939,28.8696,-128.906
57.375,-7.19943,9.422,5.71452,-14.0381,71.2891,-146.79
57.379,1.15919,8.40173,5.14929,-19.7144,113.22,-135.254
57.385,13.3786,9.62319,3.90388,-18.3716,137.573,-106.689
57.389,22.2976,10.9069,5.07265,-15.0757,145.508,-80.9936
57.394,26.7188,11.5823,6.73,-12.3901,144.226,-73.3032
57.4,23.9837,10.6818,5.97797,-3.60107,154.785,-78.6743
57.405,13.8624,9.62319,5.36484,10.8032,172.485,-88.1958
57.41,3.83203,11.4817,7.43893,19.043,178.955,-97.168
57.414,-4.9529,15.3377,9.22562,19.165,171.692,-112.305
57.42,-9.50822,17.6609,8.32988,18.8599,168.152,-137.573
57.424,-10.7967,17.6561,5.00559,23.2544,173.035,-156.616
57.43,-9.48907,16.7987,2.58184,29.3579,162.903,-158.386
57.434,-7.03178,16.1951,1.08734,32.1655,133.301,-152.039
57.44,-4.52659,14.715,-0.387995,32.4707,100.159,-142.822
57.445,-2.19384,12.5834,-0.512533,34.0576,73.9746,-135.62
57.449,-1.21188,10.7393,0.752035,35.7056,59.3872,-130.737
57.455,-2.36149,9.9537,2.34233,33.8745,47.7295,-124.084
57.459,-3.90868,9.58487,2.25132,30.4565,35.2173,-116.638
57.465,-3.85598,9.23999,0.201183,31.4331,26.4893,-111.389
57.469,-2.19384,8.56938,-2.69679,37.4756,22.7661,-108.948
57.475,0.186812,8.49274,-5.37443,44.3115,20.3247,-109.192
57.479,1.67172,8.71787,-6.99825,47.5464,26.123,-110.107
57.484,0.402367,8.85199,-7.01741,44.3726,38.4521,-111.572
57.49,-1.87291,9.49865,-5.8678,33.2031,49.2554,-114.136
57.495,-3.1279,9.94891,-4.76609,20.6299,55.603,-116.394
57.5,-2.81654,9.87706,-3.95178,11.4136,55.0537,-115.295
57.505,-2.21779,9.02443,-3.81287,4.27246,44.5557,-108.276
57.51,-1.91122,8.4161,-3.52547,-1.28174,25.0244,-99.1211
57.515,-2.0645,8.44005,-2.56267,-7.08008,3.72314,-93.3838
57.52,-2.37107,8.86637,-1.51844,-12.3901,-10.6201,-92.3462
57.525,-2.78781,9.53697,-1.01069,-14.2822,-14.2822,-94.4824
57.531,-2.73512,10.4998,-0.905316,-13.1226,-13.4888,-97.29
57.536,-2.62973,11.2566,-0.464631,-12.9395,-16.6626,-96.9849
57.541,-2.75906,11.2997,0.440685,-13.3057,-26.8555,-93.3838
57.546,-2.10762,10.3417,0.780778,-10.6201,-37.4756,-87.8296
57.551,-0.843052,8.90947,0.603541,-4.63867,-40.1611,-83.4351
57.556,0.0910074,8.74182,0.996333,3.11279,-34.3628,-81.665
57.561,-0.186812,9.66151,1.3939,8.97217,-24.0479,-79.9561
57.566,-0.541277,9.94412,1.2981,13.916,-13.7939,-78.7964
57.572,-0.579594,9.78126,0.445472,19.165,-5.85938,-76.416
57.577,-0.771194,9.51781,-0.268245,23.3765,-2.2583,-74.3408
57.582,-0.953218,9.48428,-0.531692,24.292,-2.2583,-73.2422
57.587,-0.900529,9.48428,-0.589179,22.8882,-3.60107,-72.6318
57.592,-0.708929,9.48428,-0.9149,20.3247,-4.57764,-71.8384
57.597,-0.756822,9.28788,-1.38432,18.3105,-5.24902,-70.0073
57.602,-0.684973,9.09628,-1.75315,17.2119,-4.69971,-67.8711
57.607,-0.641868,8.86637,-2.04535,15.7471,-3.2959,-65.1245
57.612,-0.799937,8.76098,-2.14594,14.0381,-2.13623,-62.2559
57.618,-1.02985,8.83284,-2.16988,11.8408,-1.89209,-59.6924
57.623,-1.16877,8.90468,-2.12199,9.82666,-2.80762,-57.1289
57.628,-1.50407,9.06275,-2.03577,8.05664,-4.57764,-54.8706
57.633,-1.83937,9.19209,-1.76753,6.10351,-6.95801,-53.1616
57.638,-1.91602,9.31663,-1.47054,4.39453,-9.8877,-51.4526
57.643,-1.98307,9.33578,-1.25978,3.17383,-13.1836,-49.4995
57.648,-1.90644,9.35494,-1.02028,2.50244,-16.2964,-47.5464
57.653,-1.85853,9.56571,-0.866998,2.50244,-18.9819,-45.227
57.659,-1.81063,9.81958,-0.737663,3.23486,-20.874,-42.6636
57.664,-1.69568,9.94412,-0.79515,3.72314,-22.1558,-40.4053
57.669,-1.5376,10.016,-0.871785,3.479,-23.9868,-37.9028
57.674,-1.36516,10.0734,-1.02985,3.60107,-24.7803,-35.8276
57.679,-1.21667,9.94891,-1.12566,3.41797,-24.9634,-34.1187
57.684,-1.27415,9.75252,-1.03944,3.11279,-24.7803,-32.6538
57.689,-1.23583,9.422,-0.919687,3.17383,-23.5596,-32.1655
57.695,-1.02028,9.25435,-1.02985,4.02832,-20.874,-32.3486
57.699,-1.07776,9.46512,-1.27894,4.39453,-18.0054,-32.6538
57.705,-1.28852,9.5226,-1.64298,4.02832,-16.2964,-33.1421
57.709,-1.33642,9.51302,-1.77231,3.54004,-15.686,-33.0811
57.715,-1.3029,9.39327,-1.73878,3.05176,-15.7471,-32.3486
57.719,-1.31247,9.32621,-1.47534,2.50244,-15.7471,-32.0435
57.725,-1.38432,9.21125,-1.38432,2.13623,-14.7095,-31.9824
57.729,-1.59987,9.30225,-1.31247,1.64795,-13.855,-31.3721
57.734,-1.72921,9.33578,-1.35079,1.2207,-13.1226,-31.4941
57.74,-1.75794,9.12503,-1.34121,1.15967,-12.7563,-31.4331
57.744,-1.87769,9.14419,-1.34121,1.09863,-13.0615,-31.25
57.75,-1.95434,9.14419,-1.35079,0.549316,-13.6719,-31.6162
57.754,-2.00224,9.36453,-1.36516,-0.244141,-15.0146,-31.7993
57.76,-1.86812,9.12981,-1.44181,-1.28174,-16.3574,-31.7993
57.764,-1.73878,9.17293,-1.37953,-1.70898,-17.5781,-31.1279
57.77,-1.68609,9.36453,-1.52803,-1.95312,-18.2495,-31.4331
57.775,-1.82022,9.4268,-1.4897,-2.13623,-18.3105,-31.7993
57.78,-1.69088,9.34057,-1.31247,-3.05176,-18.2495,-32.0435
57.785,-1.57113,9.1346,-1.12566,-3.2959,-16.9067,-32.8979
57.789,-1.65256,9.07712,-0.890944,-3.11279,-14.5874,-33.6914
57.795,-1.72921,8.94779,-0.737663,-2.99072,-12.207,-34.1187
57.799,-1.70047,9.03881,-0.694558,-2.80762,-9.52148,-35.0342
57.805,-1.71004,9.30225,-0.771194,-3.11279,-7.32422,-36.2549
57.809,-1.66215,9.40763,-0.929272,-3.17383,-5.00488,-37.2925
57.815,-1.64298,9.47949,-1.20709,-3.17383,-3.2959,-38.3301
57.82,-1.68131,9.44596,-1.41306,-4.02832,-2.2583,-39.3677
57.824,-1.79147,9.6136,-1.50887,-4.08936,-2.19727,-40.3442
57.83,-1.94954,9.67109,-1.54718,-4.5166,-3.05176,-40.9546
57.834,-2.03577,9.46032,-1.45618,-5.12695,-3.66211,-41.5039
57.84,-2.28485,9.38847,-1.23583,-5.12695,-4.39453,-41.5039
57.844,-2.38544,9.30225,-0.972377,-5.00488,-4.94385,-41.8091
57.85,-2.31838,9.24956,-0.694558,-4.57764,-5.18799,-41.9311
57.854,-2.28485,9.38847,-0.411942,-4.15039,-5.12695,-42.3584
57.859,-2.21779,9.25915,-0.392783,-4.45557,-3.60107,-43.7012
57.865,-2.1651,9.17772,-0.584382,-4.76074,-1.2207,-44.0063
57.869,-2.213,9.58487,-0.943634,-4.94385,-0.12207,-44.8608
57.875,-2.10762,9.69983,-1.24062,-5.7373,-0.366211,-46.4477
57.879,-2.07409,9.72857,-1.62382,-5.61523,-0.915527,-47.4243
57.885,-2.0214,9.79084,-1.87291,-5.61523,-2.13623,-48.4619
57.889,-1.86332,9.94412,-1.5376,-6.71387,-3.66211,-49.8657
57.895,-2.13635,10.2459,-1.22146,-7.69043,-5.00488,-52.124
57.9,-2.28485,10.1788,-0.780778,-8.91113,-5.92041,-54.4434
57.905,-1.92081,10.2076,-0.469428,-9.58252,-5.43213,-56.5186
57.91,-1.37474,10.3177,-0.474215,-10.3149,-2.38037,-59.2651
57.914,-1.44659,10.5429,-0.617912,-11.5356,1.40381,-62.0727
57.92,-1.74357,10.6099,-0.771194,-13.3057,4.82178,-65.2466
57.924,-2.00224,10.8351,-0.838255,-14.3433,6.53076,-67.3218
57.93,-2.14115,11.0363,-0.886157,-16.2354,6.40869,-69.8242
57.934,-2.2609,11.0698,-1.07297,-17.8223,5.67627,-72.3267
57.94,-2.18905,11.1033,-1.13045,-19.2871,5.00488,-74.646
57.945,-2.27527,11.1368,-1.09213,-20.874,4.63867,-76.5991
57.949,-2.35191,11.1847,-1.06338,-22.644,4.21143,-78.7354
57.955,-2.44771,11.4195,-1.04423,-24.292,3.90625,-80.9326
57.959,-2.43334,11.4865,-1.00591,-26.1841,3.479,-83.0078
57.965,-2.35191,11.4434,-1.23104,-28.0762,3.479,-84.5947
57.969,-2.38544,11.5823,-1.37474,-29.9072,3.66211,-86.4868
57.975,-2.4046,11.6063,-1.52803,-31.7383,3.54004,-88.623
57.979,-2.5483,11.7548,-1.60466,-33.2031,2.19727,-90.8203
57.984,-2.65847,11.9751,-1.65256,-35.0952,0.183105,-93.2617
57.99,-2.61537,12.0948,-1.73878,-37.4756,-1.89209,-95.3369
57.994,-2.49082,12.3104,-1.78669,-39.856,-4.02832,-97.8393
58,-2.51956,12.6409,-1.93518,-42.4194,-6.40869,-99.7925
58.004,-2.43813,13.0289,-2.23216,-45.105,-9.09424,-101.929
58.01,-2.32796,13.3498,-2.37107,-47.8516,-11.5967,-104.553
58.014,-2.19384,13.6133,-2.4046,-50.9644,-14.4653,-107.239
58.019,-1.92081,13.7714,-2.5483,-54.3213,-18.2495,-109.802
58.025,-1.70047,14.2935,-2.58184,-57.1899,-21.9116,-112.976
58.03,-1.346,14.9018,-2.51477,-60.4248,-24.4751,-117.004
58.035,-1.07776,15.3425,-2.4046,-63.6597,-26.8555,-121.155
58.039,-0.775991,15.582,-2.23216,-66.6504,-29.9683,-125.122
58.045,-0.354465,15.6203,-1.96391,-69.458,-33.5693,-128.784
58.049,0.158069,15.6251,-1.58071,-72.0825,-37.0483,-133.118
58.055,0.608338,15.9556,-0.943634,-74.2798,-39.978,-138.916
58.059,1.18793,16.5783,-0.330509,-77.0874,-43.0298,-144.226
58.065,1.84896,17.4453,-0.00478728,-79.9561,-44.4946,-149.414
58.07,2.15552,18.1447,0.134122,-83.0078,-45.5322,-154.297
58.074,2.85007,18.8536,0.210758,-86.4258,-47.6685,-158.02
58.08,3.50631,19.2128,0.0766455,-89.4165,-50.6592,-161.743
58.084,3.91825,19.347,0.0958045,-92.4072,-54.4434,-166.016
58.09,4.45474,19.347,-0.0862201,-95.7031,-59.8144,-169.495
58.094,5.11576,19.1697,-0.378411,-98.2056,-67.2607,-172.668
58.1,5.64746,18.5997,-1.04902,-99.7314,-73.1201,-175.537
58.104,5.08702,17.8716,-1.23104,-100.098,-75.0122,-180.481
58.109,4.1865,16.7795,-1.22625,-99.9756,-70.6177,-186.645
58.115,3.02731,16.2574,-1.33163,-98.6938,-60.852,-193.115
58.119,1.94475,15.582,-1.91602,-96.6186,-42.6636,-199.463
58.125,0.641868,15.5676,-2.57225,-94.4214,-21.3623,-205.139
58.129,-0.0383179,15.1461,-2.94587,-93.2007,-1.70898,-209.29
58.135,-0.282616,14.2647,-3.14706,-91.1865,14.0381,-209.656
58.139,-0.421526,13.1822,-3.45362,-88.3789,26.3672,-209.106
58.144,-0.579594,11.9607,-3.92784,-83.7402,39.3677,-206.482
58.15,-0.737663,10.7584,-4.10506,-78.3691,51.4526,-200.378
58.154,-0.684973,9.97287,-4.25356,-72.5708,63.4155,-190.124
58.16,-0.421526,9.70941,-4.07632,-67.1387,79.895,-176.819
58.164,0.0143716,9.94412,-3.25244,-62.8052,101.562,-164.49
58.17,-0.0910074,9.05318,-3.23328,-56.9458,122.864,-154.602
58.174,-0.843052,8.47837,-2.28006,-51.4526,127.38,-144.714
58.18,-0.790352,8.13828,-1.59987,-51.3306,121.521,-137.878
58.184,-0.962802,7.83172,-0.852626,-52.2461,114.685,-132.141
58.19,-1.87291,7.38145,-0.201183,-52.8564,106.567,-125.793
58.195,-2.38544,6.76832,0.129335,-54.1382,95.8252,-116.882
58.199,-2.81654,6.17436,1.19751,-56.2134,83.9233,-105.286
58.205,-3.71707,5.24509,1.66693,-60.3027,70.4346,-89.4775
58.209,-3.87515,4.81399,-0.162866,-59.4482,61.2183,-71.106
58.215,-2.05972,4.88584,-2.62494,-53.5889,63.0493,-53.1006
58.219,0.25866,4.79962,-3.14227,-47.8516,71.106,-39.978
58.225,2.18426,4.79004,-2.18426,-43.7012,75.9888,-30.0293
58.229,2.59141,4.54096,-2.39023,-41.2598,75.1343,-17.395
58.234,2.08366,3.93262,-3.08,-38.8794,75.0122,-3.2959
58.24,1.82022,3.33387,-3.10394,-35.8276,73.3032,9.33838
58.244,2.11241,2.86923,-3.02251,-33.5083,68.9087,21.0571
58.25,2.40939,2.60578,-2.9794,-31.6162,63.7207,31.311
58.254,2.65847,2.692,-2.67284,-31.0059,59.6924,41.3208
58.26,2.76385,2.8884,-2.29443,-32.7759,58.4717,51.5137
58.264,2.60578,2.98899,-2.04056,-36.1938,59.5093,61.3403
58.269,2.30401,3.04647,-1.85853,-39.5508,62.9883,70.6787
58.275,1.87291,3.06563,-1.80106,-42.2974,68.6035,79.7729
58.279,1.18314,3.14227,-1.84896,-43.8843,73.7915,89.1724
58.285,0.536489,3.34344,-1.92081,-44.9219,77.2095,99.6704
58.289,-0.0718484,3.42966,-1.9735,-46.3257,79.7729,110.168
58.295,-0.522118,3.55421,-2.04535,-46.9971,81.665,119.812
58.3,-0.74246,3.83203,-2.13635,-47.3022,82.7637,129.211
58.305,-0.886157,4.20565,-2.30401,-47.5464,83.0688,138.733
58.31,-0.910103,4.517,-2.42855,-47.6685,83.0078,148.254
58.315,-0.866998,4.83794,-2.41418,-48.0347,82.4585,157.776
58.32,-0.766406,5.13493,-2.36628,-48.8281,82.2143,167.114
58.325,-0.694558,5.18762,-2.4046,-49.6216,82.2754,176.27
58.33,-0.603541,5.30257,-2.39502,-49.2554,82.3975,185.12
58.336,-0.574807,5.40796,-2.38065,-48.645,82.2754,194.153
58.341,-0.550851,5.45585,-2.41418,-48.2788,81.0547,202.82
58.346,-0.536489,5.61393,-2.43334,-47.4853,79.5898,211.182
58.351,-0.546064,5.85343,-2.49561,-46.4477,78.0029,219.299
58.356,-0.526905,6.07377,-2.55788,-45.105,76.7212,227.356
58.361,-0.526905,6.29412,-2.66806,-43.457,75.1953,235.352
58.366,-0.464631,6.61025,-2.78781,-41.626,73.7305,243.347
58.371,-0.493374,6.91203,-2.83091,-39.6118,72.1436,251.221
58.376,-0.507746,7.1659,-2.9315,-37.3535,70.6177,258.423
58.382,-0.546064,7.52037,-3.09437,-35.0952,69.7021,265.32
58.387,-0.603541,7.89399,-3.21412,-32.3486,69.519,272.095
58.392,-0.665815,8.15744,-3.30991,-29.3579,69.3359,278.809
58.397,-0.603541,8.47358,-3.42488,-26.4282,69.0918,285.461
58.402,-0.546064,8.90947,-3.49673,-23.3765,69.458,291.931
58.407,-0.48379,9.34537,-3.62127,-20.2026,69.8853,298.401
58.412,-0.39757,9.83874,-3.7554,-16.8457,70.0684,304.688
58.417,-0.340093,10.3561,-3.87993,-13.6719,70.3735,310.669
58.423,-0.340093,10.9261,-3.93741,-10.6201,70.0684,316.65
58.428,-0.354465,11.5823,-3.91825,-7.93457,69.0308,322.021
58.433,-0.368836,12.205,-3.96137,-4.88281,68.6035,326.477
58.438,-0.440685,12.708,-4.09548,-1.40381,69.9463,330.566
58.443,-0.546064,13.2301,-4.2296,2.2583,71.3501,334.595
58.448,-0.651443,13.9246,-4.33499,5.98144,71.9604,337.952
58.453,-0.713717,14.7342,-4.49785,8.78906,72.3877,340.271
58.459,-0.986749,15.5964,-4.73735,11.1694,73.9746,341.736
58.464,-1.59509,16.4586,-5.1445,13.6719,77.8809,342.346
58.469,-2.4046,17.2154,-5.64746,17.6392,84.3506,342.346
58.474,-3.54941,17.977,-6.15041,23.9868,92.5903,341.614
58.479,-4.87147,18.7386,-6.57672,31.9214,101.807,340.637
58.484,-6.16478,19.5002,-6.88807,40.8325,108.643,339.905
58.489,-7.45809,20.0607,-7.27607,48.8281,111.389,338.623
58.494,-8.44484,20.4056,-7.54431,55.7861,111.877,335.327
58.5,-9.38369,20.5253,-7.73112,61.8286,110.779,330.627
58.504,-10.5525,20.3385,-7.81256,66.5283,106.567,325.745
58.51,-11.4434,20.4247,-7.94188,70.7397,99.6094,319.641
58.514,-12.1667,20.5445,-8.0281,74.7681,90.6982,311.584
58.52,-13.1774,20.6786,-8.16222,79.4067,78.186,302.917
58.525,-14.2791,21.1241,-8.076,85.3882,63.5986,291.992
58.53,-15.7065,21.5648,-7.87482,91.9189,45.8374,277.954
58.535,-17.3112,21.4354,-7.56826,97.229,24.4751,264.771
58.539,-19.0691,20.2044,-7.19943,100.098,1.46484,255.737
58.545,-20.6115,19.0787,-6.4474,102.051,-22.9492,247.925
58.549,-22.1012,18.1207,-5.37922,99.1821,-52.5513,238.098
58.555,-23.5239,17.3878,-4.40684,93.689,-88.8061,223.267
58.559,-24.6783,16.8705,-3.14706,86.5478,-126.648,204.651
58.565,-25.3249,16.425,-1.42743,76.4771,-163.025,182.861
58.57,-25.0471,15.2467,-0.114963,63.4155,-193.726,159.363
58.574,-24.0604,13.4025,0.579594,50.5371,-211.67,134.949
58.58,-22.7239,11.6781,0.325721,39.7949,-213.44,109.436
58.584,-21.5216,11.8841,-0.143697,32.2266,-202.82,79.9561
58.59,-19.7733,13.1295,-0.728088,22.9492,-186.035,47.0581
58.594,-17.7327,14.5857,-1.45618,13.7939,-164.185,14.6484
58.6,-16.0562,15.697,-2.23216,6.40869,-137.634,-14.8926
58.604,-14.8922,16.655,-2.50998,-0.183105,-110.596,-40.8325
58.609,-14.2839,16.1281,-2.15552,-9.33838,-88.0127,-63.2935
58.615,-14.1258,16.4729,-3.77934,-14.3433,-70.4346,-83.1299
58.619,-11.5775,18.5039,-1.66693,-13.5498,-66.9556,-105.957
58.625,-8.44484,12.5212,3.58295,-39.6118,-63.2935,-118.774
58.629,-6.42823,8.10953,2.82612,-43.9453,-39.3677,-137.329
58.635,-0.282616,6.35638,1.04423,-36.3159,8.78906,-140.564
58.639,6.51925,6.52882,1.53281,-29.602,44.4946,-115.295
58.644,14.4611,9.64235,4.50263,-30.0903,60.0586,-95.2148
58.65,22.3743,12.5643,8.89031,-39.3066,63.9038,-83.9233
58.655,28.1846,12.9906,12.6122,-47.8516,69.0918,-77.0264
58.66,29.5066,11.1847,13.6851,-46.5088,85.7544,-74.4019
58.664,21.9001,8.1766,10.198,-25.4517,121.887,-75.9888
58.67,7.56826,8.17181,6.89287,2.62451,163.025,-84.2285
58.674,-0.704132,12.0086,7.27128,17.8833,172.668,-103.455
58.68,-4.89542,15.3569,5.24509,24.5361,169.495,-126.648
58.684,-6.84497,15.7449,2.86444,26.8555,179.199,-143.799
58.69,-7.76944,14.1162,0.407154,29.3579,184.204,-150.94
58.695,-6.2989,13.3642,-0.469428,34.4849,167.847,-149.536
58.699,-3.86077,13.2445,-1.346,37.9028,140.076,-141.418
58.705,-1.34121,11.2183,-0.320934,38.5742,124.268,-132.446
58.709,0.105379,10.7728,1.7771,36.2549,116.882,-126.221
58.715,-2.07409,9.93454,1.81063,34.5459,113.098,-119.507
58.719,-4.61281,8.76577,-0.0622739,39.3066,104.614,-114.014
58.725,-5.85343,8.62686,-2.2561,46.6309,90.6372,-109.131
58.729,-4.34456,9.74773,-3.53026,49.7436,69.9463,-105.103
58.734,-3.10874,10.2315,-4.89063,51.3916,48.2178,-101.257
58.74,-2.99856,11.271,-5.91091,51.5747,34.1797,-100.464
58.744,-4.24876,12.3248,-5.87259,40.7104,30.2124,-103.699
58.75,-5.6235,12.866,-5.23072,21.6675,25.9399,-110.046
58.754,-5.01038,12.1667,-4.56969,9.27734,25.0854,-116.089
58.76,-3.30513,11.2662,-3.9949,2.44141,20.2026,-117.126
58.764,-2.44771,9.70941,-3.85598,-7.32422,-1.15967,-109.07
58.769,-3.13747,8.61728,-3.42966,-15.1978,-31.8604,-97.5342
58.775,-3.98531,8.50232,-2.19384,-21.7895,-59.082,-91.4307
58.779,-3.78892,8.96696,-1.26936,-26.6113,-74.4019,-91.8579
58.785,-2.5962,9.21603,-1.08255,-27.0996,-76.5381,-94.6655
58.789,-0.445472,9.4268,-1.16877,-23.3154,-70.5566,-95.3979
58.795,0.871785,9.56571,-0.804724,-17.9443,-62.3169,-91.1255
58.799,0.445472,9.331,-0.0766455,-13.4277,-55.3589,-84.8389
58.805,-0.402367,9.09628,0.407154,-8.78906,-49.1333,-80.3223
58.809,-0.641868,9.18729,0.387995,-5.24902,-44.3115,-78.6133
58.815,-0.387995,9.38369,0.220342,-2.62451,-39.6729,-77.2095
58.82,-0.335306,9.54655,0.249086,0.915527,-33.3252,-75.2563
58.824,-0.354465,9.67588,0.287404,4.02832,-27.2827,-72.8149
58.83,-0.416729,9.24956,0.22513,6.7749,-22.522,-70.9229
58.834,-0.498162,9.4268,0.0574768,9.39941,-18.4326,-70.1904
58.84,-0.593966,9.86748,-0.340093,10.6201,-16.2964,-69.8242
58.844,-0.22513,10.2842,-0.953218,10.8643,-15.7471,-69.7021
58.85,0.196396,10.0734,-1.59987,10.7422,-14.6484,-68.7866
58.854,0.143697,9.60403,-2.3088,11.1694,-12.207,-67.0166
58.859,-0.158069,9.24956,-2.69679,10.2539,-9.46045,-65.1855
58.865,-0.541277,8.91426,-2.5483,8.11768,-6.5918,-62.439
58.869,-0.929272,8.59333,-2.01182,6.04248,-2.80762,-59.8144
58.875,-1.41785,8.42568,-1.60466,4.94385,2.50244,-57.251
58.879,-1.71004,8.50232,-1.57593,3.84522,5.7373,-55.481
58.885,-1.94475,8.69392,-1.60946,2.01416,4.45557,-54.8096
58.889,-2.2561,8.84241,-1.60466,0.305176,0.915527,-54.1992
58.894,-2.29922,8.91426,-1.49928,-1.15967,-4.21143,-52.5513
58.9,-1.96871,9.06275,-1.29331,-2.19727,-8.11768,-50.8423
58.905,-1.78669,9.11544,-1.18793,-2.74658,-10.3149,-48.645
58.91,-1.88249,9.19209,-1.07297,-2.62451,-10.9253,-45.8984
58.914,-1.93038,9.30225,-1.08255,-2.07519,-10.6201,-43.396
58.92,-1.94475,9.21125,-0.962802,-1.0376,-9.94873,-41.3818
58.924,-1.7771,9.24956,-0.905316,0.061035,-9.21631,-39.4897
58.93,-1.69568,9.30704,-0.780778,0.488281,-8.42285,-38.3301
58.934,-1.71004,9.54176,-0.732876,1.09863,-7.44629,-37.6587
58.94,-1.59509,9.59444,-0.804724,1.52588,-6.10351,-36.7432
58.945,-1.3939,9.56091,-0.866998,2.07519,-4.08936,-35.6445
58.949,-1.30768,9.51302,-1.12566,2.74658,-1.83106,-34.4849
58.955,-1.44181,9.3789,-1.2981,3.11279,0.061035,-33.8745
58.959,-1.52803,9.31184,-1.5424,3.35693,0.671387,-33.2642
58.965,-1.55197,9.48907,-1.48012,3.2959,0.793457,-32.7759
58.969,-1.62382,9.59924,-1.56156,2.74658,0.671387,-32.959
58.975,-1.69568,9.49865,-1.78669,2.38037,0.244141,-32.8369
58.979,-1.82022,9.64235,-1.74837,1.83106,-0.793457,-32.3486
58.984,-1.94475,9.59924,-1.72441,0.976562,-2.86865,-32.1655
58.99,-2.00703,9.39806,-1.57593,0.427246,-4.94385,-32.3486
58.994,-1.93518,9.422,-1.5424,-0.305176,-6.53076,-32.1045
59,-2.11719,9.26872,-1.53281,-1.15967,-7.93457,-31.8604
59.004,-2.10282,9.46032,-1.35559,-1.40381,-9.09424,-32.0435
59.01,-1.98787,9.25915,-1.33163,-2.19727,-10.1929,-32.3486
59.014,-1.89206,8.95737,-1.2981,-2.38037,-9.70459,-32.1655
59.02,-1.80106,9.1825,-1.14003,-2.62451,-9.09424,-32.4097
59.025,-1.91602,9.1394,-0.977164,-3.35693,-7.8125,-33.3862
59.03,-2.0214,8.92384,-0.9149,-3.90625,-6.16455,-33.2642
59.035,-1.98787,9.08191,-1.11129,-4.45557,-4.69971,-33.4473
59.039,-1.83937,9.36932,-1.32205,-4.82178,-3.35693,-34.2407
59.045,-1.56634,9.45075,-1.57593,-5.24902,-2.2583,-35.2783
59.049,-1.44659,9.44596,-1.70047,-6.10351,-0.793457,-36.438
59.055,-1.60466,9.22562,-1.734,-7.14111,1.2207,-37.7197
59.059,-1.84896,9.21603,-1.72921,-7.50732,2.62451,-37.7197
59.065,-1.96871,9.331,-1.64778,-8.23975,3.05176,-38.5132
59.07,-2.26569,9.46032,-1.54718,-8.78906,2.74658,-39.6729
59.074,-2.37586,9.50822,-1.38432,-9.21631,0.976562,-40.0391
59.08,-2.20821,9.48428,-1.31247,-9.58252,-0.305176,-40.1611
59.084,-2.15072,9.80042,-1.06338,-9.33838,-1.70898,-40.9546
59.09,-2.08846,9.89622,-1.0586,-9.94873,-2.62451,-42.2974
59.094,-2.09325,9.82437,-1.02507,-10.498,-2.86865,-43.335
59.1,-2.14594,9.59924,-1.01549,-10.9253,-3.23486,-44.0674
59.105,-2.11241,9.65672,-1.09691,-10.9863,-3.479,-45.5322
59.11,-2.16031,9.59924,-1.2981,-11.1084,-3.96728,-47.3633
59.115,-2.16031,9.65193,-1.09213,-11.2305,-4.21143,-48.7671
59.12,-2.22258,9.92496,-0.593966,-12.146,-4.27246,-50.5371
59.125,-2.24653,9.97765,-0.536489,-13.5498,-3.96728,-52.5513
59.13,-2.20821,10.1166,-0.699345,-14.1602,-2.74658,-54.3213
59.135,-2.02619,9.93934,-1.02985,-15.3198,-1.83106,-56.1523
59.14,-1.86332,9.80521,-1.2502,-15.8691,-1.15967,-57.9224
59.146,-2.02619,9.87227,-1.2981,-16.3574,-0.854492,-59.6313
59.151,-2.27527,10.2315,-1.14482,-16.7236,-0.915527,-62.3169
59.156,-2.05493,10.6339,-0.876573,-17.2119,-1.15967,-64.3921
59.161,-1.84896,10.7776,-0.718504,-18.8599,-0.488281,-67.3218
59.166,-1.98787,11.0985,-0.670602,-20.2026,0.488281,-70.3735
59.171,-1.99744,11.2518,-0.522118,-21.8506,1.34277,-73.0591
59.176,-1.93518,11.2518,-0.584382,-23.6206,2.80762,-75.6836
59.181,-2.00703,11.5488,-0.550851,-24.6582,3.90625,-78.3081
59.187,-2.12199,11.5871,-0.455056,-26.2451,4.08936,-80.9326
59.192,-2.23694,11.5967,-0.316147,-27.9541,4.3335,-83.4961
59.197,-2.35191,11.8745,-0.292191,-29.4189,4.82178,-86.1206
59.202,-2.47166,12.0182,-0.325721,-31.3721,5.85938,-88.501
59.207,-2.46687,12.0709,-0.574807,-33.5693,6.46973,-90.332
59.212,-2.51956,12.1523,-0.761619,-35.5835,6.28662,-92.4683
59.217,-2.49082,12.0948,-1.0586,-37.7808,5.49316,-94.6045
59.222,-2.5004,12.1859,-1.37474,-39.6729,4.27246,-96.3745
59.228,-2.5483,12.4206,-1.66693,-41.8091,2.80762,-98.6328
59.233,-2.63452,12.775,-1.95434,-44.0063,0.732422,-100.891
59.238,-2.62973,13.1056,-2.15552,-46.5698,-2.2583,-102.6
59.243,-2.57225,13.3977,-2.36628,-49.4385,-6.10351,-104.675
59.248,-2.26569,13.7378,-2.56746,-52.4902,-10.437,-106.934
59.253,-2.04535,14.145,-2.6441,-55.7251,-13.855,-109.253
59.258,-1.89206,14.6144,-2.68721,-59.082,-17.2729,-111.694
59.264,-1.84416,15.1078,-2.68243,-62.5,-21.4844,-114.746
59.269,-1.48012,15.4287,-2.54351,-66.04,-26.062,-118.103
59.274,-0.900529,15.4287,-2.42855,-69.519,-30.3345,-120.85
59.279,-0.0862201,15.4191,-2.28963,-72.2046,-33.6914,-124.756
59.284,0.732876,15.5389,-1.89685,-74.646,-34.5459,-130.249
59.289,0.689771,16.0658,-1.36516,-77.1484,-34.5459,-136.292
59.294,0.866998,16.7268,-1.06338,-79.6509,-34.3628,-141.907
59.299,1.81063,17.522,-0.948431,-82.2143,-35.2173,-147.095
59.305,2.3088,18.2596,-0.934059,-85.083,-37.4146,-151.245
59.309,2.49082,18.6572,-0.752035,-88.9282,-40.5884,-155.762
59.315,3.26681,18.7386,-0.871785,-93.0786,-43.1519,-160.583
59.32,3.93262,19.1458,-1.02028,-95.7642,-46.0205,-165.405
59.324,4.28709,19.6056,-1.15919,-98.6328,-50.4761,-170.349
59.33,4.53616,19.4044,-1.17356,-101.99,-55.2368,-175.72
59.334,5.06307,19.0644,-0.938846,-104.919,-59.7534,-180.481
59.34,5.25468,18.365,-0.938846,-106.689,-62.6221,-184.265
59.344,4.57928,17.4118,-1.14003,-106.506,-60.1196,-187.256
59.35,2.90276,16.6502,-0.919687,-105.774,-53.7109,-191.65
59.354,1.08734,16.0131,-1.06338,-105.835,-44.4946,-197.571
59.359,0.129335,15.9892,-1.93038,-105.652,-35.0952,-202.332
59.365,0.335306,15.3569,-2.87881,-104.797,-23.0713,-204.346
59.369,0.349677,14.3366,-3.68354,-101.074,-7.99561,-205.566
59.375,0.349677,13.0529,-4.0859,-94.9707,11.7798,-206.787
59.379,0.0239462,11.8266,-4.26793,-87.2803,33.3862,-204.407
59.385,0.148494,10.9069,-4.29666,-79.834,55.7861,-197.083
59.389,0.910103,10.4183,-3.73623,-74.707,80.9326,-185.852
59.394,0.574807,9.33578,-3.88951,-67.9932,106.689,-171.875
59.4,-0.977164,8.69392,-3.80809,-56.3965,122.803,-156.189
59.405,-1.79626,8.7035,-3.08,-49.2554,126.404,-145.874
59.41,-1.45618,8.53106,-2.12678,-47.9736,119.324,-139.099
59.414,-1.73878,8.04247,-1.07297,-48.8892,104.614,-133.301
59.42,-2.22737,7.72634,-0.411942,-49.6216,89.1113,-128.357
59.424,-1.74837,7.47725,0.287404,-51.3916,76.416,-122.07
59.43,-1.27894,6.9743,1.2981,-55.0537,67.0166,-111.45
59.434,-1.14003,5.92528,1.83459,-59.6924,64.3311,-95.6421
59.44,-1.05381,4.87147,0.349677,-61.0962,68.9087,-77.5146
59.445,-0.22513,4.88105,-2.36628,-54.1382,79.6509,-62.0727
59.449,2.00703,5.37443,-3.23807,-44.3726,91.1865,-51.8188
59.455,3.7554,4.99122,-2.62015,-40.2222,96.4966,-41.0767
59.459,3.80329,3.94699,-2.95546,-38.5742,95.8252,-26.3672
59.465,3.13747,3.45841,-3.38177,-32.5317,97.3511,-11.9629
59.469,2.89318,3.22849,-3.27638,-27.5879,99.7314,0.183105
59.475,2.8884,2.8405,-3.21891,-24.5361,97.7783,12.085
59.479,2.83571,2.58184,-3.16143,-21.4844,92.5293,24.4751
59.484,2.75906,2.65368,-2.87403,-19.5312,86.3037,36.6821
59.49,2.39023,2.90756,-2.41418,-19.7754,81.604,48.3398
59.494,1.70525,2.94587,-2.13157,-21.7895,79.2236,58.6548
59.5,1.03465,2.92672,-2.0214,-23.4375,77.5146,68.3594
59.504,0.459844,2.86444,-1.98307,-24.231,75.1953,78.7964
59.51,-0.0143716,2.92672,-1.89206,-24.9023,72.2656,89.8437
59.514,-0.474215,3.07041,-1.825,-25.5737,68.5425,100.952
59.52,-0.728088,3.34344,-1.97828,-26.062,64.3311,111.938
59.525,-0.728088,3.62606,-1.96391,-26.7944,61.6455,123.474
59.53,-0.747247,3.79371,-2.05972,-28.0762,58.7769,133.972
59.535,-0.689771,4.00926,-2.14115,-28.4424,55.9082,144.104
59.539,-0.651443,4.20087,-2.07888,-28.8086,54.1382,154.175
59.545,-0.637071,4.35894,-2.08846,-28.8696,53.1006,163.879
59.549,-0.670602,4.47869,-2.09325,-28.3203,52.4902,173.401
59.555,-0.775991,4.53138,-2.13635,-27.3437,50.9033,182.922
59.559,-0.670602,4.71819,-2.25132,-26.123,48.1567,192.017
59.565,-0.502959,5.00559,-2.14115,-25.0854,47.1191,201.172
59.57,-0.502959,5.05828,-2.03097,-24.4141,46.5088,209.717
59.574,-0.589179,5.24988,-1.9735,-22.9492,45.3491,217.895
59.58,-0.680186,5.47022,-1.99744,-21.1182,43.5791,225.708
59.584,-0.708929,5.66182,-2.08846,-19.165,41.626,233.032
59.59,-0.74246,5.91091,-2.11719,-16.8457,39.5508,240.417
59.594,-0.728088,6.19831,-2.15552,-14.4653,36.9873,247.803
59.6,-0.723291,6.51446,-2.25132,-12.0239,34.1187,255.371
59.604,-0.747247,6.85454,-2.37586,-9.15527,31.3721,262.329
59.609,-0.713717,7.22338,-2.46208,-6.53076,28.2593,268.677
59.615,-0.708929,7.58263,-2.53872,-3.35693,25.3906,274.841
59.619,-0.670602,7.90835,-2.63452,0.183105,22.8271,280.884
59.625,-0.598753,8.23407,-2.62973,3.90625,21.1182,286.682
59.629,-0.479003,8.6077,-2.56746,7.69043,19.8364,292.48
59.635,-0.435898,9.08671,-2.47645,11.4136,18.3716,297.974
59.639,-0.349677,9.59444,-2.39502,15.2588,17.5781,303.162
59.645,-0.22513,10.1022,-2.31838,19.165,18.1885,307.739
59.65,-0.13891,10.5572,-2.26569,23.1934,19.2871,311.584
59.655,-0.110166,11.065,-2.2609,27.832,21.2402,314.941
59.66,-0.0718484,11.635,-2.2609,31.8604,23.9868,318.237
59.664,-0.153281,12.2529,-2.28963,35.7056,27.5879,321.106
59.67,-0.364039,12.9571,-2.42855,39.7949,32.4097,323.242
59.674,-0.718504,13.6851,-2.72074,44.3115,38.0859,325.317
59.68,-1.26936,14.4563,-3.07041,49.6216,44.9829,327.209
59.684,-2.17947,15.2802,-3.25244,54.9316,50.7202,329.285
59.69,-3.35782,16.1855,-3.23328,59.6924,53.4668,330.994
59.695,-4.62718,17.0621,-3.04647,63.1103,53.1006,331.848
59.699,-5.84863,17.795,-3.04168,65.2466,51.8799,331.36
59.705,-6.45218,18.365,-3.26202,66.3452,52.1851,330.139
59.709,-6.63421,18.7865,-3.46319,67.5659,55.6641,328.247
59.715,-6.93597,19.2128,-3.66917,70.1294,63.2935,325.378
59.719,-7.48684,19.735,-3.89431,73.3032,73.6084,322.327
59.725,-8.31551,20.305,-4.20565,76.416,84.5337,319.58
59.729,-9.46032,21.0331,-4.30146,79.7729,93.2007,315.125
59.734,-10.6626,21.7132,-4.20087,81.3599,96.3135,309.143
59.74,-12.0422,22.4797,-4.12901,81.1767,93.8721,301.453
59.744,-13.4169,23.1359,-4.08112,79.7729,89.0503,292.053
59.75,-14.9401,23.5718,-4.07632,79.6509,81.7261,278.931
59.754,-16.5783,23.3083,-4.17691,80.2002,73.1201,263.672
59.76,-18.7003,22.2162,-4.41163,81.8481,62.6221,247.864
59.764,-20.7073,20.6834,-4.74213,82.7637,46.7529,231.445
59.77,-21.8474,18.9063,-4.62238,80.3833,25.8789,218.628
59.775,-23.0784,17.2968,-4.14818,77.3926,2.92969,205.994
59.78,-24.1897,16.267,-3.52547,74.0967,-20.0806,187.866
59.785,-24.6639,15.8933,-2.70159,70.7397,-39.978,166.382
59.789,-24.6639,16.2526,-1.59987,69.1528,-54.6265,143.799
59.795,-25.871,15.8933,0.119751,63.7207,-66.8335,119.385
59.799,-25.5788,15.4575,1.73878,52.4292,-78.125,91.0644
59.805,-24.137,15.5197,2.69679,40.5884,-85.3271,59.8755
59.809,-22.8724,15.6682,3.20932,29.2969,-83.6182,26.7944
59.815,-21.1384,15.788,3.33866,17.9443,-72.876,-6.28662
59.82,-19.05,15.4239,3.03209,6.04248,-55.9692,-36.6821
59.824,-17.3543,14.6144,2.38544,-4.5166,-35.0342,-63.1714
59.83,-15.9508,14.1306,1.83459,-12.207,-11.9019,-86.1816
59.834,-14.9976,13.9534,1.71004,-20.5688,10.9253,-107.422
59.84,-13.6947,13.4648,1.49449,-31.0669,31.0669,-126.221
59.844,-7.48684,12.6505,-0.234714,-40.7104,50.1099,-138.733
59.85,4.36852,11.7739,-1.97828,-44.6777,68.8477,-132.935
59.854,15.1365,10.7057,-2.97462,-39.3677,81.7871,-109.131
59.859,21.0858,10.2938,-1.47054,-29.1748,80.1392,-85.4492
59.865,23.1551,9.89143,1.54718,-26.001,66.7114,-73.6694
59.869,20.6307,7.86046,3.30513,-24.6582,62.8662,-75.3174
59.875,13.3451,6.61504,4.84273,-15.625,78.125,-85.7544
59.879,4.95769,8.7035,6.91682,-5.7373,96.1914,-97.8393
59.885,-0.526905,12.4493,7.33355,0.732422,110.535,-113.892
59.889,-3.83682,14.3797,5.03434,6.40869,130.615,-130.798
59.895,-6.41865,14.6,1.64298,15.564,151.184,-142.944
59.9,-7.06531,14.3078,-0.263448,22.7661,157.043,-146.912
59.905,-5.55166,13.5079,-1.57113,25.3906,145.508,-141.602
59.91,-3.62127,13.4169,-1.33642,26.5503,127.075,-134.46
59.915,-2.00703,12.2529,0.215555,23.3154,109.802,-129.211
59.92,-1.89206,10.9309,1.92081,23.8647,96.1914,-124.023
59.925,-2.70637,10.0926,2.03097,23.6206,89.2334,-117.249
59.93,-3.73623,8.88073,0.474215,26.3672,88.0127,-108.887
59.935,-4.63676,8.13828,-1.84896,33.2642,84.4726,-100.281
59.94,-4.54575,8.33466,-3.38177,39.2456,72.4487,-93.3227
59.945,-3.68354,8.78972,-3.85598,42.7856,57.0679,-88.9892
59.951,-3.50152,10.0399,-3.40093,44.6167,43.1519,-85.8154
59.956,-3.99968,11.1943,-2.5962,41.4429,35.9497,-85.3882
59.961,-3.83203,11.453,-2.1651,34.9731,36.1328,-87.7685
59.966,-2.69679,10.9357,-2.13635,30.3955,41.9922,-91.3086
59.971,-1.30768,9.98723,-2.10282,29.1748,45.8984,-92.1631
59.976,-0.440685,9.49865,-2.24653,28.3813,43.8232,-88.0737
59.981,-0.843052,9.35974,-1.86332,22.522,34.668,-80.7495
59.986,-1.45618,9.35016,-1.31726,16.1133,23.5596,-76.1108
59.992,-2.35191,9.0915,-1.28852,10.8643,14.4043,-74.707
59.997,-2.37107,8.8472,-1.77231,8.60596,10.8643,-74.7681
60.002,-1.40827,8.87594,-2.25132,8.78906,9.09424,-73.7915
60.007,-1.21667,9.2831,-1.71484,8.66699,4.27246,-69.8242
60.012,-1.51365,9.59924,-0.641868,6.5918,-0.427246,-65.3687
60.017,-1.346,9.62319,-0.368836,4.82178,-1.2207,-62.1948
60.022,-1.09213,9.44116,-0.191599,4.82178,0,-59.1431
60.028,-0.924475,9.25915,-0.143697,7.38525,2.31934,-56.3965
60.033,-0.560435,9.3789,0.0239462,11.2915,5.24902,-53.6499
60.038,-0.364039,9.74773,0.0670612,14.1602,7.8125,-51.6357
60.043,-0.287404,9.92496,-0.273032,14.3433,10.0098,-50.0488
60.048,-0.335306,9.75731,-0.589179,14.3433,10.8643,-49.1943
60.053,-0.426313,9.66151,-0.761619,13.9771,10.0708,-49.1333
60.058,-0.450259,9.43638,-0.986749,13.7939,7.8125,-49.6826
60.063,-0.493374,9.2831,-1.49928,13.7329,4.39453,-50.1099
60.069,-1.06338,9.31184,-2.14115,14.0381,-0.305176,-50.354
60.074,-1.09213,9.4268,-2.16988,14.7705,-7.93457,-51.2695
60.079,0.517321,9.44116,-1.34121,14.8315,-12.5732,-50.7202
60.084,0.991536,9.0915,-1.26457,14.2822,-9.8877,-47.7295
60.089,-0.455056,8.943,-1.59029,13.2446,-4.82178,-45.5322
60.094,-1.85853,9.12024,-2.00224,11.1084,-3.17383,-44.4946
60.099,-2.23694,9.16813,-1.96391,8.72803,-4.45557,-42.1753
60.104,-2.17468,9.05318,-1.96391,6.53076,-9.82666,-38.9404
60.109,-1.61425,9.0915,-1.63819,4.88281,-15.9912,-36.6821
60.115,-1.04423,9.17293,-1.17356,4.02832,-18.7988,-35.5835
60.119,-0.929272,9.43159,-1.05381,4.08936,-17.8833,-34.729
60.125,-1.27894,9.62319,-1.03944,4.02832,-15.8081,-33.2031
60.129,-1.5424,9.69025,-1.00591,4.21143,-16.4185,-31.6772
60.135,-1.61903,9.77168,-0.972377,4.5166,-19.5923,-30.1514
60.139,-1.50887,9.67109,-0.972377,4.45557,-23.1323,-28.7476
60.145,-1.35559,9.46032,-1.27415,4.63867,-25.5127,-27.0386
60.15,-1.09213,9.44596,-1.37953,5.12695,-26.062,-25.8179
60.155,-1.1544,9.35016,-1.66215,5.12695,-25.2075,-25.5127
60.16,-1.19751,9.23999,-1.98307,5.37109,-24.9023,-25.3296
60.164,-0.981961,9.48428,-2.03097,4.88281,-26.2451,-25.1465
60.17,-0.74246,9.33578,-2.10762,3.90625,-27.832,-24.9634
60.174,-0.378411,9.09628,-2.12678,3.35693,-27.2217,-25.9399
60.18,-0.0670612,9.06754,-1.94475,3.23486,-24.4751,-26.7944
60.184,-0.263448,9.02443,-1.734,2.80762,-21.6064,-27.1606
60.19,-0.809521,9.05797,-1.56156,2.31934,-19.5923,-28.3203
60.195,-1.09213,9.32621,-1.15919,2.01416,-18.0054,-29.2969
60.199,-0.986749,9.44596,-0.876573,1.46484,-17.2119,-29.6631
60.205,-0.766406,9.2831,-0.986749,0.976562,-15.8081,-29.7852
60.209,-0.646656,9.27352,-1.18314,0.488281,-13.7939,-29.9683
60.215,-0.718504,9.15376,-1.61425,0.305176,-11.4746,-30.5786
60.219,-0.785565,9.08191,-1.6334,0.427246,-9.21631,-31.311
60.225,-0.953218,9.16334,-1.4897,0.427246,-7.32422,-31.7993
60.229,-1.07776,9.26872,-1.40348,-0.305176,-6.46973,-32.4707
60.234,-1.2023,9.20646,-1.62382,-0.610352,-5.43213,-33.2031
60.24,-1.12087,9.29268,-1.51844,-0.732422,-4.57764,-33.4473
60.244,-1.12566,9.51302,-1.39869,-1.34277,-4.76074,-33.5083
60.25,-1.41306,9.38369,-1.56634,-2.01416,-4.76074,-34.2407
60.254,-1.68131,9.38369,-1.51365,-2.44141,-5.31006,-34.1797
60.26,-1.81543,9.44116,-1.2502,-2.86865,-7.14111,-34.0576
60.264,-1.6334,9.48907,-1.1544,-3.17383,-9.09424,-34.4849
60.27,-1.41785,9.54176,-1.17356,-3.35693,-9.8877,-34.9121
60.275,-1.45138,9.56091,-1.45618,-3.84522,-11.0474,-35.2783
60.28,-1.35559,9.47469,-1.63819,-4.39453,-13.0005,-36.2549
60.285,-1.23583,9.48907,-1.45618,-4.3335,-15.0757,-37.4756
60.289,-0.900529,9.422,-1.1544,-4.45557,-16.9678,-38.9404
60.295,-0.608338,9.30704,-0.88137,-4.63867,-16.4795,-41.4429
60.299,-0.387995,9.55134,-0.728088,-4.94385,-13.3057,-44.1284
60.305,-0.627497,9.62319,-1.12566,-5.31006,-8.91113,-46.814
60.309,-1.20709,9.7142,-1.36037,-5.79834,-5.43213,-49.6216
60.315,-1.37953,9.63756,-1.88249,-6.71387,-4.15039,-51.7578
60.32,-1.23104,9.7621,-2.16988,-7.32422,-4.88281,-53.5889
60.324,-0.991536,9.87706,-2.33754,-8.36182,-5.79834,-56.0303
60.33,-1.01549,9.86748,-2.213,-9.64355,-5.79834,-58.7158
60.334,-0.981961,9.91538,-2.13157,-10.9863,-4.45557,-61.8286
60.34,-1.19272,10.083,-2.03577,-12.207,-3.479,-64.7583
60.344,-1.33642,9.92975,-1.86812,-13.6108,-3.90625,-67.0166
60.35,-1.27894,10.0591,-1.63819,-14.3433,-4.88281,-69.5801
60.354,-1.346,10.2698,-1.23583,-15.3809,-5.06592,-72.937
60.359,-1.62382,10.4088,-1.02985,-17.0288,-3.90625,-76.9043
60.365,-1.49449,10.6147,-0.981961,-18.2495,-2.07519,-80.9936
60.369,-1.44659,10.8447,-1.14482,-19.3481,-1.46484,-83.8623
60.375,-1.27894,10.859,-1.36037,-19.9585,-1.77002,-86.6089
60.379,-0.924475,11.0171,-1.20709,-20.9961,-0.976562,-90.5762
60.385,-1.31726,11.362,-1.19751,-22.8271,1.34277,-95.52
60.389,-1.46575,11.8266,-1.25499,-24.0479,3.23486,-100.159
60.394,-1.13524,12.2481,-0.526905,-25.5737,3.35693,-103.21
60.4,-0.948431,11.932,-0.502959,-28.2593,3.66211,-107.178
60.405,-1.21667,12.1954,-0.723291,-30.1514,6.40869,-111.938
60.41,-1.48491,12.8181,-0.785565,-32.1045,9.46045,-116.577
60.414,-1.60466,12.981,-0.799937,-34.2407,10.7422,-120.544
60.42,-1.73878,12.9571,-0.958005,-35.8276,10.1318,-123.84
60.424,-1.72921,12.9571,-1.07297,-37.0483,8.97217,-126.709
60.43,-1.71962,13.0864,-1.0586,-38.208,8.17871,-129.761
60.434,-1.60466,13.3546,-1.16877,-39.4897,8.17871,-133.118
60.44,-1.69568,13.7139,-1.36037,-41.0767,8.05664,-137.268
60.445,-1.83459,14.1594,-1.57113,-42.7856,6.46973,-141.113
60.449,-1.83459,14.6432,-1.87769,-44.6167,3.479,-144.836
60.455,-1.45618,15.285,-2.30401,-46.5088,-0.12207,-148.376
60.459,-1.08734,16.0227,-2.85007,-48.1567,-3.72314,-152.161
60.465,-1.04423,16.655,-3.44883,-50.0488,-8.11768,-155.823
60.469,-1.09691,17.225,-4.33019,-51.5137,-14.8315,-159.424
60.475,-1.00112,17.7231,-5.11097,-52.2461,-24.4751,-162.537
60.479,-0.579594,18.2596,-5.55644,-52.124,-37.2925,-165.466
60.484,0.488587,18.4991,-6.0594,-51.9409,-52.3682,-169.25
60.49,1.45138,18.159,-6.43303,-51.0864,-67.5049,-174.988
60.494,1.346,18.2165,-6.27974,-49.2554,-78.9795,-181.519
60.5,1.57593,19.0644,-6.00191,-47.1191,-88.0127,-185.669
60.504,2.33275,20.1469,-5.70015,-44.8608,-99.7314,-185.364
60.51,3.11353,20.6067,-5.34568,-43.335,-118.469,-182.068
60.514,3.1231,20.3672,-4.86668,-41.626,-142.517,-178.223
60.519,2.68243,19.2176,-4.93374,-41.3818,-160.889,-177.307
60.525,2.92193,17.7471,-4.54096,-44.3115,-169.922,-179.443
60.529,3.3674,15.8071,-4.4691,-49.3774,-182.678,-184.875
60.535,2.13635,14.1354,-4.21524,-52.3682,-188.965,-191.956
60.539,0.435898,12.8517,-3.69791,-53.1616,-179.26,-196.716
60.545,-1.68609,12.1763,-3.20453,-52.7954,-159.79,-200.073
60.549,-3.37697,12.3152,-3.00335,-52.124,-135.864,-200.928
60.555,-3.87035,12.6265,-2.6441,-52.4292,-109.436,-196.899
60.559,-4.61281,12.4924,-2.692,-51.1475,-88.7451,-189.88
60.565,-5.03434,11.7787,-2.95546,-48.7671,-75.4395,-181.58
60.57,-5.0966,10.9692,-2.87881,-46.2036,-67.9932,-172.302
60.574,-4.5218,10.5381,-2.46687,-43.2129,-62.439,-163.391
60.58,-3.86556,9.92496,-2.09325,-40.1611,-58.2275,-155.457
60.584,-2.98419,9.20166,-1.22625,-38.0249,-56.8237,-146.484
60.59,-2.39502,8.50232,-0.0862201,-37.9028,-55.9692,-136.414
60.594,-2.07888,7.67843,0.675399,-39.0625,-52.2461,-127.686
60.6,-1.49928,6.96472,1.7819,-40.8936,-46.814,-118.896
60.604,-1.04423,6.78269,3.17579,-43.2129,-40.1611,-108.398
60.609,-1.44181,6.24142,3.08957,-44.6777,-26.6724,-98.8159
60.615,-2.00703,5.05349,2.3088,-44.3726,-7.20215,-91.0644
60.619,-1.47534,4.50743,1.65735,-42.2363,16.2354,-83.1299
60.625,-0.752035,4.48347,1.17356,-38.5742,39.7339,-73.4863
60.629,-0.560435,4.30146,0.962802,-35.0342,60.1807,-63.7817
60.635,-1.14003,3.72665,0.752035,-32.7759,76.2329,-56.3965
60.639,-1.92081,2.96503,0.488587,-31.0669,88.501,-51.0254
60.644,-2.45729,2.34233,0.526905,-29.1748,98.5718,-45.8374
60.65,-2.92193,1.80106,0.785565,-27.0386,107.3,-40.3442
60.654,-3.65001,1.31247,1.12087,-24.7803,115.173,-34.4849
60.66,-4.4691,1.04423,1.25978,-23.0103,121.582,-28.9917
60.664,-5.22115,0.886157,1.37953,-22.0337,126.16,-22.9492
60.67,-6.2031,0.512533,1.71004,-21.9116,127.563,-16.9678
60.674,-7.35271,0.119751,1.88728,-21.7895,125.061,-11.5356
60.68,-8.35383,-0.13891,1.94475,-21.1792,119.995,-5.67627
60.684,-9.40285,-0.459844,2.19384,-21.3623,112.793,-0.244141
60.69,-10.3609,-1.2023,2.27048,-21.9116,103.271,3.90625
60.695,-11.2566,-1.77231,2.31838,-21.0571,91.2476,7.93457
60.699,-12.138,-2.28485,2.21779,-19.2261,78.8574,11.7798
60.705,-12.9954,-2.57704,2.19863,-16.3574,68.0542,14.6484
60.709,-13.6037,-2.59141,2.4046,-14.0381,59.082,15.1978
60.715,-14.509,-2.73032,2.7399,-15.4419,51.6357,14.5264
60.72,-15.8407,-3.91346,2.78781,-15.3198,43.8843,15.9912
60.725,-16.8993,-4.54575,3.24765,-11.4136,32.8979,17.8833
60.73,-17.4214,-4.3781,3.91825,-8.60596,21.5454,18.0664
60.735,-17.6178,-4.15775,4.49785,-9.64355,13.4888,16.7847
60.74,-17.7231,-4.27272,4.83315,-11.2915,7.87354,13.9771
60.745,-17.8094,-4.10506,5.36006,-13.1226,5.37109,10.8032
60.75,-17.7758,-3.73144,5.40316,-14.2212,6.5918,7.75146
60.756,-18.0297,-3.13269,5.19719,-16.7847,7.20215,4.57764
60.761,-18.5566,-3.42488,5.17324,-19.6533,6.46973,-0.366211
60.766,-18.5949,-3.22849,5.12056,-20.5688,7.14111,-5.24902
60.771,-18.662,-2.92672,5.10618,-21.6064,10.2539,-9.64355
60.776,-18.6572,-2.81654,5.13013,-23.4985,14.5264,-14.7095
60.781,-18.4752,-2.85965,5.01517,-26.6113,18.5547,-20.3247
60.786,-18.547,-3.00815,4.8571,-29.48,22.2778,-25.6348
60.792,-18.5806,-3.18059,4.72777,-31.189,25.6348,-30.3345
60.797,-18.5853,-3.31471,4.55054,-32.4707,27.4048,-35.3394
60.802,-18.5135,-3.29075,4.426,-33.6914,27.6489,-40.7104
60.807,-18.3219,-3.32907,4.24876,-35.5225,26.4893,-46.2036
60.812,-18.1495,-3.40093,3.95178,-37.1704,22.9492,-51.8188
60.817,-17.9483,-3.3626,3.82245,-38.6963,17.2729,-57.1289
60.822,-17.8525,-3.30034,3.62127,-39.856,10.1929,-61.8286
60.827,-17.5363,-3.27638,3.28597,-40.9546,3.41797,-67.0166
60.833,-16.813,-3.16143,2.99378,-41.5039,-2.44141,-72.0215
60.838,-15.9796,-3.10874,2.68721,-41.3818,-7.99561,-75.5615
60.843,-15.2419,-3.02731,2.46208,-40.8325,-13.6108,-78.125
60.848,-14.5186,-2.99856,2.29922,-39.978,-18.6768,-80.6885
60.853,-13.6372,-2.8884,2.17468,-38.269,-22.1558,-83.1299
60.858,-12.8229,-2.66326,2.05972,-36.5601,-24.353,-85.022
60.863,-12.205,-2.42855,1.91602,-34.5459,-26.062,-85.8154
60.868,-11.9703,-2.25132,1.84896,-31.7383,-27.71,-85.6934
60.873,-11.7164,-1.95434,1.90165,-27.9541,-29.541,-85.144
60.879,-11.1512,-1.346,1.87291,-24.9634,-29.541,-85.022
60.884,-10.5046,-0.962802,1.70525,-22.0947,-27.2827,-84.8999
60.889,-9.9058,-0.459844,1.68131,-18.7988,-24.231,-84.0454
60.894,-9.49385,0.119751,1.66215,-15.8691,-21.3013,-82.7026
60.899,-9.30225,0.617912,1.51844,-13.1226,-18.0664,-81.2988
60.904,-9.10587,1.16398,1.36995,-10.437,-14.8315,-79.7119
60.909,-8.85678,1.81063,1.29331,-7.87354,-13.6108,-78.2471
60.914,-8.52148,2.56746,1.22625,-5.67627,-13.6719,-76.7822
60.92,-8.23887,3.19016,1.02507,-4.08936,-14.0991,-74.8901
60.924,-7.89399,3.86556,0.780778,-2.38037,-15.1978,-72.3877
60.93,-7.43415,4.72777,0.450259,-0.976562,-17.6392,-69.2139
60.934,-7.08926,5.59956,0.0910074,0.915527,-21.6064,-65.0635
60.94,-7.15632,6.50966,-0.205971,2.13623,-26.1841,-61.0962
60.945,-7.29044,7.36229,-0.622709,3.479,-29.3579,-57.9834
60.949,-7.31439,8.08559,-1.0586,5.79834,-30.9448,-55.3589
60.955,-7.27128,8.82804,-1.36037,7.87354,-32.4707,-53.4668
60.959,-7.30002,9.53218,-1.59987,9.46045,-34.2407,-52.1851
60.965,-7.35271,9.99202,-1.90644,10.9863,-35.4614,-51.4526
60.969,-7.39103,10.3465,-2.16031,13.1836,-37.2314,-50.8423
60.975,-7.30481,10.5525,-2.33754,15.564,-39.3677,-49.6826
60.979,-7.24733,10.6866,-2.52435,17.7002,-41.3208,-48.2178
60.984,-7.30002,10.7441,-2.43334,19.5312,-42.9687,-46.6309
60.99,-7.46767,10.7441,-2.213,20.9961,-44.5557,-45.166
60.994,-7.5539,10.6531,-2.03577,22.583,-45.8374,-44.3115
61,-7.49162,10.677,-1.84896,24.9634,-46.5088,-43.396
61.004,-7.41019,10.7105,-1.71962,27.5269,-47.1802,-41.748
61.01,-7.25212,10.7057,-1.51365,29.7241,-48.8892,-39.6118
61.014,-7.05572,10.6435,-1.22625,30.5176,-51.3306,-36.6211
61.019,-6.80665,10.6051,-0.981961,30.0293,-53.772,-33.3862
61.025,-6.28932,10.6099,-0.866998,29.1138,-55.3589,-29.6631
61.03,-5.49418,10.7009,-0.771194,28.3203,-55.2978,-25.6958
61.035,-4.7086,10.8207,-0.79515,27.9541,-53.2227,-21.4844
61.039,-4.13859,11.0506,-0.886157,27.2827,-49.2554,-17.4561
61.045,-3.73623,11.156,-1.01549,26.3672,-43.6401,-13.6719
61.049,-3.56858,11.1464,-1.07297,25.0854,-37.3535,-10.498
61.055,-3.4153,11.0602,-1.0586,23.8647,-31.5552,-8.17871
61.059,-3.17579,10.8494,-1.04902,22.7051,-25.8789,-6.28662
61.065,-2.8884,10.5572,-1.12087,22.3389,-19.8975,-4.15039
61.07,-2.6489,10.2363,-1.12566,22.4609,-15.8081,-1.64795
61.074,-2.28006,9.94891,-0.996333,22.2168,-14.0991,1.40381
61.08,-1.90165,9.71899,-0.82868,20.9961,-13.0615,4.82178
61.084,-1.56634,9.59924,-0.646656,19.7144,-11.2305,8.78906
61.09,-1.23104,9.5226,-0.220342,17.8223,-8.48389,13.1226
61.094,-1.00112,9.31184,-0.0862201,15.686,-4.94385,17.7002
61.1,-0.771194,9.0915,-0.0431149,14.5264,-1.15967,22.9492
61.104,-0.704132,8.86637,0.0335306,13.855,2.44141,28.9917
61.109,-0.732876,8.72745,0.119751,13.7939,4.15039,35.4614
61.115,-0.632284,8.61728,-0.0526895,14.7095,4.69971,42.0532
61.119,-0.387995,8.66997,-0.119751,15.3198,6.71387,48.7061
61.125,0.0718484,8.79451,-0.0814328,15.0146,8.54492,55.9082
61.129,0.651443,8.97653,-0.110166,14.3433,10.1318,63.2935
61.135,1.27415,9.26394,-0.0718484,13.1836,13.2446,70.6177
61.139,1.825,9.49385,0.0143716,11.8408,17.5781,78.186
61.144,2.26569,9.62319,0.0383179,10.5591,22.583,86.0596
61.15,2.68721,9.6136,0.00958437,8.78906,27.8931,94.3603
61.154,2.96503,9.53697,0.00958437,7.01904,32.8369,102.661
61.16,3.16622,9.56091,0.148494,5.49316,37.5977,110.413
61.164,3.25244,9.69025,0.210758,3.84522,42.4194,117.615
61.17,3.25244,9.89622,0.340093,1.70898,48.1567,125.183
61.174,3.15185,10.016,0.416729,-0.549316,54.3823,132.568
61.18,2.95546,10.0639,0.349677,-2.74658,61.1572,140.137
61.184,2.71595,10.1645,0.287404,-4.94385,67.8711,147.705
61.19,2.31359,10.3417,0.268245,-7.14111,73.9746,155.518
61.195,1.94954,10.4758,0.0670612,-9.76562,80.3223,163.574
61.199,1.6334,10.6674,-0.129335,-12.2681,87.0972,171.326
61.205,1.33642,10.883,-0.335306,-14.5874,94.1772,178.589
61.209,1.12087,11.1321,-0.708929,-16.3574,101.562,185.303
61.215,0.886157,11.4099,-0.96759,-18.0054,108.398,191.895
61.219,0.775991,11.6973,-1.17356,-19.5923,114.258,198.608
61.225,0.79515,11.9847,-1.37953,-21.5454,119.69,205.2
61.229,0.756822,12.1907,-1.52803,-23.6206,125.183,211.243
61.234,0.699345,12.4302,-1.57593,-25.5737,130.676,216.675
61.24,0.684973,12.5547,-1.68131,-27.4048,136.475,221.741
61.244,0.699345,12.7128,-1.825,-28.8086,142.639,226.013
61.25,0.536489,12.9044,-1.90165,-29.9072,148.987,229.858
61.254,0.296978,13.1343,-2.00224,-30.8228,154.358,233.582
61.26,0.0143716,13.3451,-2.1651,-31.7383,158.691,237.244
61.264,-0.229927,13.4744,-2.32316,-33.02,162.476,240.417
61.269,-1.00112,13.3834,-3.25722,-33.6914,167.48,241.577
61.275,-2.75906,13.5893,-3.93741,-33.6304,170.105,240.845
61.279,-5.42712,14.9306,-1.48012,-37.2925,158.508,244.202
61.285,-7.91794,16.6741,2.14594,-49.1943,128.052,248.596
61.289,-6.0594,16.152,4.35894,-67.688,107.3,248.23
61.295,-1.36995,14.9976,2.71595,-72.6318,120.605,246.277
61.299,-1.25978,13.7139,0.320934,-60.3638,155.151,251.221
61.305,-1.94954,13.1391,-1.33642,-48.2788,173.584,257.08
61.309,-1.09213,13.7953,-2.92672,-42.0532,177.429,257.568
61.315,-0.134122,14.6815,-3.59253,-39.5508,184.631,255.859
61.32,0.862211,14.6911,-3.88951,-39.0015,198.12,255.249
61.325,0.886157,14.533,-3.85598,-38.5742,213.379,254.883
61.33,-0.316147,14.921,-4.05716,-37.1094,228.149,254.272
61.335,-1.734,15.1413,-4.80441,-34.9121,244.202,252.502
61.34,-2.73032,14.9306,-5.70494,-32.8979,257.324,249.451
61.345,-4.93374,14.6,-5.95402,-30.1514,260.315,250
61.35,-6.93119,14.4803,-5.98755,-29.0527,251.343,250.916
61.355,-8.19575,14.2695,-6.80665,-29.0527,238.647,249.145
61.361,-8.69871,13.4887,-7.75028,-27.6489,228.149,247.559
61.366,-8.56938,12.5738,-8.66997,-23.2544,219.543,247.742
61.371,-9.48428,12.5212,-9.50344,-16.7847,209.839,249.207
61.376,-10.1309,12.4828,-9.99202,-10.376,200.073,248.352
61.381,-10.9309,12.0086,-10.5381,-5.31006,190.491,247.742
61.386,-12.1859,12.2769,-10.8782,0,178.955,243.835
61.391,-13.5462,12.6313,-10.7009,3.72314,164.246,237.854
61.396,-14.5042,12.4685,-10.3752,4.63867,143.982,233.643
61.402,-14.9306,12.2864,-10.016,6.46973,123.657,230.53
61.407,-15.3281,12.4158,-9.74294,11.2305,107.666,224.487
61.412,-16.2526,12.7511,-9.31663,16.3574,93.5669,216.492
61.417,-17.3926,13.1774,-8.79451,20.5078,78.186,209.228
61.422,-18.547,13.6133,-8.1766,23.1323,60.6689,201.66
61.427,-19.5721,13.7666,-7.597,24.353,41.687,193.42
61.432,-20.5828,13.7762,-7.04135,24.7803,22.2168,184.937
61.438,-21.0858,13.8049,-6.46656,25.1465,3.41797,174.377
61.443,-21.1959,13.6708,-5.94923,25.6348,-11.5967,161.865
61.448,-21.1863,13.2349,-5.61393,27.0996,-20.5078,148.315
61.453,-20.3193,17.8333,-4.70382,33.1421,-26.5503,131.042
61.458,-22.5994,19.3087,-4.5218,40.4663,-39.0625,98.8769
61.463,-28.1702,12.0565,-3.67396,33.6304,-39.6729,84.9609
61.468,-25.8183,11.8889,-2.76385,24.1699,-30.8228,65.5518
61.473,-22.4174,13.4456,-2.62494,20.4468,-13.4888,44.4336
61.478,-22.8629,13.3211,-3.18059,21.4233,-4.94385,27.8931
61.484,-24.1131,12.3391,-2.93629,22.4609,0.915527,10.437
61.489,-23.6341,11.9416,-1.65256,22.7051,11.1084,-9.0332
61.494,-22.1396,11.1752,-1.11608,20.874,22.583,-25.2686
61.499,-20.6403,10.3848,-0.526905,20.0806,36.7432,-39.3066
61.504,-18.7099,10.5572,1.08734,18.6157,47.9126,-52.124
61.509,-13.46,11.338,2.73032,13.3057,57.4341,-64.5752
61.514,-1.95434,11.4961,4.45474,2.68555,70.6177,-67.3828
61.519,10.4614,11.0075,4.72777,-5.7373,84.9609,-54.6265
61.525,17.613,11.4051,4.3781,-4.5166,100.708,-36.377
61.53,17.6657,12.32,2.34712,3.90625,117.249,-23.9868
61.535,9.58008,12.6074,-0.162866,14.4653,124.817,-22.644
61.539,-0.637071,12.7846,-0.675399,20.1416,111.938,-31.9214
61.545,-9.81958,13.0002,0.201183,18.1885,81.4209,-41.687
61.55,-8.01853,11.5105,1.3939,16.7236,41.2598,-52.6123
61.554,-5.85822,12.8181,0.953218,17.0288,-0.244141,-50.9644
61.559,-4.28709,11.2518,-0.148494,7.14111,-7.8125,-45.5322
61.565,-2.46687,9.97765,-1.11608,9.39941,-8.48389,-41.4429
61.569,-1.734,9.52738,-1.53281,16.5405,-4.82178,-39.0015
61.574,-0.871785,9.1346,-1.06338,23.6206,5.5542,-39.7949
61.58,-0.373624,8.91426,-0.282616,29.7852,16.7847,-39.1846
61.585,-0.986749,8.64602,0.493374,33.6304,21.2402,-35.2173
61.589,-2.23216,8.38735,1.14482,33.0811,13.3667,-30.2734
61.594,-3.13747,8.54543,1.02507,30.3955,-2.68555,-27.1606
61.6,-3.06084,8.87115,-0.143697,29.7852,-17.5781,-25.3906
61.605,-2.84528,9.40285,-1.21667,31.311,-25.6348,-24.9634
61.609,-2.8405,9.8579,-2.15072,31.8604,-29.48,-25.4517
61.615,-2.51477,9.9058,-3.11831,30.5786,-30.5786,-26.3061
61.62,-1.61425,9.65672,-3.65959,28.3813,-29.8462,-27.9541
61.624,-0.287404,9.11544,-3.51588,25.3906,-29.4189,-29.48
61.629,0.215555,8.58375,-3.11353,22.583,-30.1514,-30.4565
61.635,-0.498162,8.47837,-2.55788,20.3247,-33.4473,-30.6396
61.64,-1.37953,8.69871,-1.92081,18.5547,-37.5366,-31.0669
61.644,-2.0166,9.24956,-1.25978,16.9067,-37.5977,-31.9824
61.65,-2.2609,9.74294,-0.838255,15.7471,-35.6445,-33.2642
61.655,-1.46096,9.75731,-0.819096,14.8315,-33.9966,-33.5083
61.659,-0.277819,9.422,-1.1544,16.3574,-30.7007,-31.9214
61.664,0.292191,8.91426,-1.48012,19.104,-26.123,-29.9072
61.67,0.105379,8.85678,-1.43222,20.6909,-22.583,-30.8228
61.675,-0.378411,9.15376,-1.2023,20.2026,-20.752,-34.2407
61.679,-0.752035,9.69504,-1.0586,19.104,-19.7144,-37.9639
61.684,-0.646656,10.0447,-1.22146,18.7378,-17.9443,-40.2222
61.69,-0.273032,9.99681,-1.40827,18.1885,-14.5264,-40.4663
61.694,-0.191599,9.77647,-1.51844,17.1509,-9.46045,-40.1001
61.699,-0.364039,9.59444,-1.51365,15.5029,-3.78418,-40.0391
61.705,-0.833467,9.53218,-1.52323,13.9771,2.2583,-39.7949
61.71,-1.18314,9.52738,-1.69568,12.3901,7.44629,-39.1235
61.714,-1.31247,9.49385,-1.81063,10.6201,11.4746,-37.2925
61.719,-1.40827,9.40285,-1.84896,8.72803,14.0991,-35.0952
61.725,-1.68609,9.35016,-1.76274,6.89697,15.9912,-33.9355
61.73,-2.14594,9.55613,-1.62862,4.82178,16.9067,-32.6538
61.734,-2.20341,9.64235,-1.68131,2.2583,15.8081,-30.8838
61.74,-2.12199,9.67588,-1.65735,-0.244141,12.7563,-29.2969
61.745,-2.03577,9.69983,-1.54718,-2.38037,9.21631,-28.4424
61.749,-1.9735,9.6663,-1.44181,-3.35693,5.92041,-27.6489
61.754,-2.0214,9.62319,-1.23583,-3.96728,3.2959,-26.6724
61.76,-2.09325,9.59924,-1.09213,-4.27246,1.28174,-25.6348
61.765,-1.87769,9.72857,-1.04423,-4.57764,0,-24.8413
61.769,-1.5424,9.79084,-1.08734,-4.82178,-1.09863,-23.8037
61.775,-1.36516,9.81,-1.27415,-4.69971,-2.07519,-22.9492
61.78,-1.4897,9.68546,-1.37953,-4.76074,-2.62451,-22.583
61.784,-1.48012,9.48907,-1.35559,-4.57764,-3.11279,-23.3765
61.789,-1.36995,9.422,-1.31726,-4.15039,-2.86865,-24.231
61.795,-1.21667,9.47949,-1.40827,-4.08936,-2.19727,-25.1465
61.8,-1.23104,9.52738,-1.41785,-4.21143,-1.83106,-26.1841
61.804,-1.32684,9.38847,-1.27894,-4.57764,-1.15967,-26.9165
61.809,-1.47054,9.22562,-1.06338,-5.06592,-0.793457,-27.5879
61.815,-1.65256,9.19688,-0.9149,-5.00488,-0.061035,-28.6255
61.819,-1.61425,9.24956,-0.876573,-4.94385,1.40381,-29.7241
61.824,-1.66215,9.28788,-1.1065,-4.82178,2.31934,-30.3955
61.83,-1.69568,9.29747,-1.23583,-4.88281,1.89209,-31.311
61.835,-1.60946,9.33578,-1.16398,-4.94385,0.915527,-32.3486
61.839,-1.76274,9.40285,-1.13045,-5.7373,-0.305176,-33.6304
61.844,-2.08366,9.59924,-1.24062,-7.01904,-2.13623,-34.6069
61.85,-1.89206,9.73336,-1.36995,-8.36182,-4.88281,-35.0952
61.855,-1.43701,9.6136,-1.54718,-9.33838,-7.50732,-36.2549
61.859,-1.26936,9.50822,-1.56634,-9.76562,-8.54492,-37.4146
61.865,-1.37474,9.43638,-1.31726,-10.8032,-8.30078,-38.6963
61.87,-1.71962,9.70462,-1.1544,-11.5356,-7.08008,-40.4663
61.874,-1.95913,10.0447,-1.11129,-12.7563,-6.40869,-42.1753
61.879,-1.91122,9.95849,-1.31726,-14.1602,-6.28662,-42.6636
61.885,-1.96391,9.92017,-1.47534,-14.7705,-7.01904,-43.2739
61.89,-1.85853,9.74773,-1.50407,-15.5029,-8.05664,-44.4336
61.894,-2.00703,9.62798,-1.38432,-16.1133,-9.15527,-45.3491
61.9,-2.12678,9.69504,-0.847839,-16.2354,-10.6201,-46.7529
61.905,-1.90644,9.32141,-0.244289,-16.2964,-11.3525,-48.7061
61.909,-1.85853,9.56571,0.201183,-15.7471,-10.1929,-50.293
61.914,-2.08846,10.1645,0.306563,-17.2119,-7.62939,-51.5747
61.92,-1.78669,10.0878,-0.0191589,-18.1885,-5.85938,-53.7109
61.925,-1.55676,10.0639,-0.411942,-18.8599,-3.60107,-55.6641
61.929,-1.5855,10.2842,-0.713717,-20.2637,-1.46484,-57.1289
61.934,-1.65256,10.4135,-0.938846,-21.8506,0.305176,-59.2651
61.94,-1.69088,10.677,-1.02507,-23.3154,1.34277,-61.6455
61.944,-1.70525,10.8159,-1.07776,-24.4751,2.19727,-63.9648
61.949,-1.66215,10.8686,-0.986749,-25.5737,3.90625,-65.5518
61.955,-1.79147,11.1847,-1.1065,-25.8179,6.65283,-67.0166
61.96,-2.14115,11.4195,-1.28373,-26.9165,7.56836,-69.5801
61.964,-2.29443,11.5105,-1.26936,-28.4424,6.40869,-71.228
61.969,-2.24174,11.3668,-1.11129,-29.7241,4.08936,-72.3267
61.975,-2.3567,11.3811,-0.895741,-30.4565,1.58691,-73.4253
61.98,-2.20821,11.2949,-0.522118,-31.311,0.12207,-74.8901
61.984,-2.00703,11.2039,-0.239501,-32.1045,1.15967,-76.7822
61.99,-1.88728,11.0842,-0.249086,-33.4473,3.05176,-78.5522
61.995,-2.10762,11.156,-0.234714,-35.3394,4.94385,-80.2002
61.999,-2.47645,11.2997,-0.167653,-37.2314,5.61523,-81.7261
62.004,-2.52915,11.3811,-0.201183,-38.6963,5.12695,-83.0688
62.01,-2.25132,11.52,-0.325721,-39.7949,5.18799,-84.3506
62.015,-1.89206,11.6398,-0.598753,-41.1987,6.89697,-85.9375
62.019,-1.66693,11.6637,-1.13045,-43.6401,9.76562,-87.4634
62.025,-1.87769,11.9032,-1.67172,-45.5322,11.9019,-89.3555
62.03,-2.05493,11.8697,-1.9735,-47.6074,11.9019,-91.1255
62.034,-1.80584,12.1667,-2.36149,-49.4995,10.376,-93.2617
62.039,-1.734,12.6457,-2.38065,-52.2461,10.1929,-96.1914
62.045,-2.16988,12.8373,-2.27527,-55.2978,7.44629,-98.4497
62.05,-2.2561,13.3977,-2.12199,-57.9834,2.56348,-100.525
62.054,-1.94475,13.9103,-2.00703,-61.2183,-2.92969,-102.966
62.059,-1.50407,14.3078,-1.95913,-64.9414,-7.62939,-105.835
62.065,-1.01549,14.6,-1.825,-68.9087,-11.7798,-108.032
62.069,-0.416729,14.7389,-1.734,-72.4487,-14.7705,-110.962
62.074,-0.182025,15.0216,-1.66693,-75.1953,-16.5405,-114.38
62.08,-0.0143716,15.194,-1.28373,-77.8809,-19.2261,-118.469
62.085,0.584382,15.3281,-0.775991,-80.2002,-22.522,-123.108
62.089,1.40348,15.3473,-0.162866,-82.7637,-23.9868,-128.601
62.094,2.18426,15.3521,0.277819,-85.5713,-23.8647,-133.911
62.1,2.79259,15.7065,0.771194,-88.9892,-22.4609,-140.564
62.105,2.94109,16.3101,0.943634,-93.0786,-18.8599,-146.729
62.109,3.03209,17.0334,1.06338,-97.7783,-15.9912,-153.015
62.115,3.80329,17.4884,0.598753,-101.99,-13.4888,-157.471
62.12,4.038,18.389,0.282616,-105.713,-12.5122,-162.048
62.125,4.18171,18.2501,-0.00478728,-110.413,-11.7187,-166.26
62.13,4.40684,18.9686,-0.282616,-113.22,-12.8784,-170.959
62.135,4.92895,18.6524,-0.555648,-115.906,-13.6719,-175.415
62.14,4.77088,18.8536,-1.13045,-115.54,-12.5122,-178.772
62.145,3.74581,17.9866,-1.42743,-115.723,-4.88281,-184.57
62.15,2.76385,17.8046,-2.07409,-114.624,8.8501,-191.589
62.155,2.49561,18.1495,-2.58662,-113.953,25.1465,-198.669
62.161,2.36149,17.0573,-2.84528,-114.868,44.1894,-202.148
62.166,1.93997,16.4969,-2.98419,-113.708,59.8755,-203.003
62.171,1.63819,15.6012,-2.94109,-113.708,73.3643,-201.538
62.176,1.42265,13.9869,-2.98419,-114.624,85.8765,-199.341
62.181,1.61903,13.2157,-2.96025,-114.075,99.6704,-197.449
62.186,1.59029,11.9032,-3.25244,-114.136,116.943,-194.58
62.191,1.5376,10.8973,-3.94699,-111.267,136.963,-187.683
62.196,1.57113,10.2842,-3.87993,-107.178,158.325,-176.941
62.202,1.36037,9.4268,-4.47869,-100.769,183.777,-162.964
62.207,-0.292191,8.72745,-4.52659,-93.0786,200.989,-148.01
62.212,-2.73032,8.61249,-3.38656,-87.6465,203.613,-140.93
62.217,-3.48715,8.76098,-2.5962,-85.022,200.562,-139.282
62.222,-3.47278,8.66997,-2.0214,-85.5102,195.557,-135.925
62.227,-3.07041,8.5119,-1.28852,-88.0737,187.622,-128.235
62.232,-1.82979,8.10475,-0.962802,-93.689,178.894,-116.394
62.237,-0.632284,7.24733,-0.0479022,-103.333,173.706,-96.5576
62.242,0.0766455,6.36596,0.143697,-113.037,172.119,-69.9463
62.248,0.728088,5.79116,-3.08,-113.22,175.354,-49.6216
62.253,2.51956,5.41753,-6.26059,-104.492,183.411,-37.2314
62.258,4.69424,5.14929,-6.38512,-96.6797,189.148,-26.6724
62.263,4.8092,4.81878,-6.0115,-91.6748,184.082,-12.7563
62.268,4.16734,4.63197,-5.35526,-90.5151,172.058,2.19727
62.273,3.81287,4.55054,-4.90979,-93.2617,158.142,15.5029
62.278,3.66438,3.91825,-4.93374,-98.5107,145.935,27.1606
62.283,3.65001,3.10394,-5.09181,-102.295,135.62,38.6353
62.289,3.65001,2.87881,-5.11097,-103.943,126.038,50.5981
62.294,3.32429,2.98419,-5.1924,-105.957,117.676,62.3779
62.299,2.80696,2.98899,-5.31694,-109.009,111.572,73.5474
62.304,2.20341,2.94109,-5.35047,-112.366,107.727,84.6558
62.309,1.48012,2.90276,-5.31215,-115.051,103.638,97.168
62.314,0.82868,2.95546,-5.34568,-116.699,99.4263,109.314
62.319,0.416729,3.03209,-5.54687,-118.042,96.6186,120.422
62.324,0.00478728,3.26681,-5.54687,-118.652,94.4824,131.47
62.33,-0.435898,3.42009,-5.5756,-119.446,91.2476,142.09
62.335,-0.560435,3.56379,-5.75284,-119.934,86.9141,152.893
62.339,-0.526905,3.76976,-5.93965,-119.507,83.0688,163.94
62.344,-0.455056,3.77934,-6.14083,-118.713,80.2612,174.683
62.35,-0.320934,3.80329,-6.43781,-116.699,78.125,184.753
62.355,-0.196396,4.14818,-6.47134,-113.77,77.4536,195.374
62.359,-0.320934,4.36852,-6.51925,-111.633,76.7212,206.482
62.365,-0.320934,4.41163,-6.73479,-108.398,76.5381,216.125
62.37,-0.201183,4.69424,-6.81622,-103.943,77.3926,224.915
62.374,-0.249086,4.94332,-6.86413,-99.5483,78.9795,233.643
62.379,-0.263448,5.22593,-7.01741,-94.6045,80.7495,242.065
62.385,-0.340093,5.71452,-7.11321,-89.0503,82.9468,250.366
62.39,-0.522118,6.02587,-7.18985,-83.8013,85.022,257.812
62.394,-0.512533,6.36596,-7.3575,-78.3081,87.3413,264.343
62.4,-0.450259,6.84018,-7.45809,-72.5098,89.9658,270.935
62.405,-0.387995,7.22338,-7.5491,-66.5894,93.3227,277.588
62.409,-0.464631,7.5539,-7.71196,-60.6689,96.9849,284.058
62.414,-0.493374,8.03769,-7.77423,-54.3823,99.9145,289.673
62.42,-0.48379,8.6077,-7.80776,-48.3398,102.295,294.8
62.425,-0.455056,9.29747,-7.70718,-42.6025,103.882,299.316
62.429,-0.387995,9.98244,-7.66885,-37.7197,105.225,303.528
62.434,-0.402367,10.6099,-7.71675,-32.1655,109.07,307.251
62.44,-0.526905,11.2039,-7.60179,-26.062,114.624,310.303
62.444,-0.866998,11.8266,-7.63053,-19.8975,119.629,313.599
62.449,-1.23104,12.5547,-7.57784,-14.4653,122.681,316.467
62.455,-1.66215,13.2349,-7.49641,-10.376,125.305,318.359
62.46,-1.9256,13.6947,-7.61616,-5.98144,128.235,319.214
62.464,-2.19384,14.1546,-7.76944,-0.610352,132.996,319.214
62.469,-2.60099,14.6336,-7.86046,5.37109,139.832,318.909
62.475,-3.171,15.0599,-7.94668,11.7187,147.827,318.726
62.48,-3.74102,15.4814,-8.15265,18.9209,157.104,317.871
62.484,-4.24397,15.8694,-8.38257,26.7334,168.213,316.101
62.49,-4.8571,16.2526,-8.73703,34.8511,179.871,313.904
62.495,-5.66662,16.6406,-9.19688,43.5791,192.322,311.462
62.499,-6.62462,17.043,-9.65672,52.124,203.796,309.021
62.504,-7.7934,17.4884,-10.083,60.1807,211.426,306.213
62.51,-8.87594,18.0201,-10.4375,68.1763,214.539,302.124
62.515,-9.92017,18.4656,-10.5525,75.1953,212.524,297.119
62.519,-10.9452,18.7099,-10.5716,80.8716,205.383,291.016
62.525,-11.9464,18.9302,-10.4854,86.0596,193.665,284.363
62.53,-12.9523,19.1123,-10.3177,91.1255,177.795,277.405
62.534,-14.236,19.4188,-9.81479,96.3745,157.654,269.47
62.539,-15.5101,19.826,-9.4268,100.159,133.118,260.193
62.545,-16.4203,20.5301,-8.86157,103.516,106.445,250.671
62.55,-17.3112,20.7265,-8.20055,106.018,78.8574,241.76
62.554,-18.1878,20.2571,-7.47246,107.3,50.5981,231.873
62.559,-18.7147,19.3326,-6.62941,106.628,21.4233,222.839
62.565,-19.0356,18.0058,-5.67141,103.76,-6.04248,213.501
62.569,-19.5865,16.4155,-5.293,98.7549,-31.7383,202.332
62.574,-20.5732,15.3138,-5.07265,93.5059,-57.251,189.087
62.58,-21.2821,14.5761,-5.293,87.0972,-85.2661,173.584
62.585,-21.6989,14.5521,-5.15887,80.2002,-115.662,154.785
62.589,-21.4115,14.3414,-4.58885,68.1763,-144.47,136.23
62.594,-20.9852,14.1594,-3.96137,56.7017,-165.466,118.042
62.6,-19.9793,15.5245,-3.71228,50.293,-173.218,95.8862
62.605,-18.5374,17.9722,-2.56746,48.2178,-172.852,70.1294
62.609,-18.7674,15.8023,-1.11608,36.8652,-161.011,42.7246
62.615,-16.9519,15.4575,-0.00478728,30.4565,-137.756,12.3291
62.62,-15.6826,15.0982,0.119751,25.7568,-108.704,-12.4512
62.624,-15.7305,14.121,0.296978,20.3857,-83.7402,-32.7759
62.629,-15.1748,13.3977,1.17356,11.7798,-65.3076,-54.7485
62.635,-13.0097,13.4073,2.61537,1.15967,-45.0439,-77.7588
62.64,-10.5716,13.6756,5.19719,-13.0005,-19.4702,-97.4731
62.644,-7.51557,14.2216,7.67843,-30.2124,8.48389,-113.953
62.65,0.934059,15.0216,8.63165,-44.1284,40.9546,-123.169
62.655,13.9965,14.9401,10.9836,-53.6499,67.1387,-108.704
62.659,23.0976,12.9571,13.2013,-54.0161,76.7212,-79.7729
62.664,27.3559,11.0123,12.4493,-39.4897,93.3838,-67.9932
62.67,24.0795,8.84241,9.06275,-19.4092,120.239,-75.6226
62.675,9.68546,7.46288,4.53138,7.87354,144.104,-91.9189
62.679,-0.852626,10.1788,4.91937,27.9541,152.344,-108.704
62.684,-7.52037,13.8959,4.29188,31.189,145.02,-124.145
62.69,-7.98978,14.5617,3.37697,29.7241,155.823,-139.16
62.694,-7.81256,15.4287,2.23694,34.79,148.01,-142.7
62.699,-8.88073,14.1115,0.622709,31.8604,134.888,-134.216
62.705,-6.31806,12.4302,-0.0862201,29.602,108.398,-121.826
62.71,-2.85007,11.7356,0.114963,30.3345,76.0498,-112.366
62.714,-0.852626,9.98723,1.2502,32.2876,55.7251,-109.07
62.719,-0.637071,8.66997,1.96871,33.02,46.1426,-104.492
62.725,-1.63819,8.1766,1.34121,35.4614,44.4336,-95.7642
62.73,-2.26569,8.36819,-0.613125,42.0532,43.457,-88.2568
62.734,-2.36149,8.38257,-3.27638,50.1099,41.2598,-86.6699
62.74,-1.346,8.98612,-5.54207,55.0537,36.0718,-86.853
62.745,-0.627497,9.331,-6.75875,54.7485,37.3535,-86.792
62.749,-1.5376,10.0303,-6.33722,48.2178,43.5181,-87.5244
62.754,-3.37219,10.4662,-5.29778,33.2642,47.9736,-89.1724
62.76,-3.89431,10.1884,-4.16254,19.9585,47.3633,-91.0034
62.765,-3.19496,9.58487,-3.37697,12.3291,40.6494,-88.9282
62.769,-2.4046,9.27831,-3.02251,6.34766,23.3765,-81.1767
62.775,-1.61903,9.14419,-2.83571,0.976562,3.84522,-72.4487
62.78,-1.25978,9.19209,-2.33275,-3.90625,-8.97217,-68.2373
62.784,-1.32684,9.55613,-1.52803,-8.30078,-13.3667,-67.9321
62.789,-1.46096,9.66151,-1.01549,-10.437,-12.6953,-68.6035
62.795,-1.28852,9.60403,-0.723291,-10.376,-11.4136,-68.9697
62.8,-0.991536,9.63277,-0.387995,-8.97217,-13.3667,-68.1152
62.804,-0.862211,9.75252,0.0718484,-7.8125,-17.9443,-65.979
62.809,-1.38432,9.93934,0.584382,-6.40869,-22.522,-63.0493
62.815,-1.99266,10.3034,1.03944,-4.5166,-25.7568,-61.3403
62.819,-2.03577,10.6387,1.1065,-2.80762,-28.5034,-60.3027
62.824,-1.71962,10.6195,0.641868,-0.183105,-30.0293,-58.4717
62.83,-0.948431,10.4423,0.292191,3.72314,-29.9683,-57.0068
62.835,-0.143697,10.0064,0.0574768,7.56836,-27.771,-55.9082
62.839,0.0479022,9.44116,0.00478728,11.7798,-23.3154,-54.9927
62.844,-0.205971,9.331,-0.0718484,14.7705,-18.4937,-53.9551
62.85,-0.301775,9.55613,-0.440685,16.0522,-14.2822,-53.4668
62.855,-0.0718484,9.59444,-1.02028,17.1509,-10.8643,-53.5278
62.859,0.182025,9.422,-1.52323,17.8833,-9.21631,-54.3823
62.865,0.651443,9.06754,-1.82979,18.1885,-6.83594,-54.9927
62.87,0.493374,8.57417,-2.1651,18.0054,-3.479,-53.772
62.874,-0.143697,8.47837,-2.34712,16.2354,-1.64795,-51.6968
62.879,-0.335306,8.68913,-2.44771,12.9395,-1.70898,-49.8657
62.885,-0.229927,8.69871,-2.51956,9.8877,-0.793457,-48.2178
62.89,-0.469428,8.54064,-2.49561,8.60596,1.0376,-45.7153
62.894,-0.919687,8.51669,-2.28006,7.38525,1.40381,-43.335
62.9,-1.34121,8.61249,-2.07409,5.79834,-0.12207,-42.1753
62.905,-1.5424,8.68434,-1.9256,4.15039,-2.44141,-41.2598
62.909,-1.69568,8.82325,-1.76274,3.2959,-5.00488,-39.7339
62.914,-1.71962,9.09628,-1.41785,2.50244,-8.97217,-38.6353
62.92,-1.77231,9.331,-0.977164,1.46484,-13.4277,-38.269
62.925,-1.94475,9.58008,-0.694558,0.976562,-17.0288,-38.4521
62.93,-2.10762,9.87706,-0.498162,-0.183105,-21.7285,-38.5132
62.935,-1.82022,9.86748,-0.517321,-1.09863,-26.2451,-37.9639
62.94,-1.36995,9.74294,-0.593966,-0.305176,-28.9917,-36.6211
62.945,-0.890944,9.65672,-0.680186,1.15967,-29.9683,-35.3394
62.95,-0.761619,9.63756,-0.780778,2.07519,-28.9917,-34.5459
62.955,-0.876573,9.6184,-0.886157,1.70898,-27.71,-34.4238
62.96,-0.986749,9.62798,-0.96759,0.976562,-25.8789,-33.9355
62.966,-0.871785,9.58966,-1.02985,0.793457,-23.4985,-33.2642
62.971,-0.838255,9.45554,-1.01549,1.09863,-20.4468,-32.1655
62.976,-0.88137,9.43638,-1.14003,1.34277,-17.6392,-31.6162
62.981,-0.890944,9.32621,-1.34121,1.2207,-15.8691,-31.311
62.986,-1.00591,9.35016,-1.44181,0.854492,-14.7095,-30.8838
62.991,-1.1544,9.422,-1.38912,0.244141,-13.7329,-30.7617
62.996,-1.34121,9.41243,-1.37474,-0.488281,-13.1226,-31.3721
63.001,-1.38432,9.23041,-1.40348,-0.915527,-12.4512,-32.0435
63.006,-1.346,9.0915,-1.45618,-1.28174,-11.4746,-31.4331
63.012,-1.17356,9.23999,-1.3939,-1.70898,-11.2305,-31.8604
63.017,-1.09691,9.35016,-1.25978,-2.44141,-11.3525,-32.8979
63.022,-1.15919,9.40285,-1.23583,-3.35693,-10.9253,-33.9966
63.027,-1.17835,9.56571,-1.25499,-3.90625,-9.94873,-35.5225
63.032,-1.13524,9.69983,-1.19751,-4.45557,-9.21631,-36.377
63.037,-1.03944,9.58487,-1.21188,-5.00488,-8.48389,-37.3535
63.042,-0.862211,9.47949,-1.20709,-5.37109,-6.7749,-38.5132
63.047,-0.890944,9.58966,-1.32205,-5.67627,-5.12695,-39.978
63.053,-1.11129,9.60403,-1.31247,-6.53076,-3.96728,-42.0532
63.058,-1.32205,9.68546,-1.36995,-7.44629,-3.41797,-43.5791
63.063,-1.25978,9.71899,-1.36516,-8.17871,-3.41797,-45.105
63.068,-1.2023,9.70462,-1.47054,-8.91113,-3.2959,-46.6309
63.073,-1.27894,9.79084,-1.52323,-9.52148,-3.35693,-48.1567
63.078,-1.52803,9.64713,-1.50407,-10.376,-3.60107,-49.3164
63.083,-1.77231,9.6663,-1.33642,-11.3525,-3.96728,-50.293
63.088,-1.82022,9.79563,-1.06818,-12.0239,-4.88281,-51.3306
63.094,-1.88728,9.67109,-0.958005,-12.6953,-5.37109,-52.3682
63.099,-1.83937,9.77168,-0.82868,-13.4888,-5.24902,-53.1616
63.104,-1.70047,9.81479,-0.905316,-14.7095,-4.63867,-54.0771
63.109,-1.76274,9.79563,-1.04902,-15.4419,-3.54004,-55.2368
63.114,-1.81063,9.70941,-1.2023,-16.2354,-3.23486,-56.4575
63.119,-1.79626,9.72857,-1.36516,-17.2119,-3.66211,-57.373
63.124,-1.89206,9.9058,-1.22146,-18.3716,-4.5166,-58.5937
63.129,-1.68131,9.92017,-1.11608,-19.5312,-5.67627,-59.3872
63.135,-2.05493,10.2507,-0.886157,-20.0806,-6.46973,-60.852
63.14,-2.13635,10.0399,-0.555648,-21.1182,-6.16455,-63.1714
63.144,-2.00224,10.2746,-0.589179,-21.6675,-5.98144,-64.5752
63.15,-1.84416,10.4758,-0.819096,-22.522,-5.49316,-67.3828
63.155,-1.82022,10.5668,-1.03944,-23.3765,-4.94385,-69.519
63.159,-1.06338,10.8638,-0.65624,-24.7803,-4.88281,-71.8384
63.164,-1.62862,10.859,-0.421526,-26.8555,-3.35693,-73.6694
63.17,-1.91122,10.9644,-0.153281,-27.3437,-0.244141,-75.5615
63.175,-1.70047,11.4434,-0.0766455,-27.5879,1.89209,-77.7588
63.179,-1.44181,11.635,-0.100592,-28.9307,3.41797,-80.7495
63.184,-1.48491,11.4578,-0.0287433,-30.5176,6.16455,-82.9468
63.19,-1.62382,11.6637,0.22513,-31.4941,8.72803,-85.8154
63.194,-1.81543,11.8649,0.253873,-32.7759,11.1084,-88.4399
63.199,-1.95913,12.2146,0.0622739,-34.1797,13.1226,-91.0034
63.205,-1.81543,12.4014,-0.330509,-36.499,14.2822,-93.2007
63.21,-1.72921,12.5547,-0.694558,-38.7573,14.7095,-95.52
63.214,-1.81063,12.32,-0.9149,-41.0767,15.5029,-98.5107
63.219,-2.10762,12.3535,-1.18793,-42.7246,15.1367,-100.403
63.225,-2.28485,12.8229,-1.31726,-44.3726,12.3901,-102.295
63.23,-2.18905,12.9954,-1.51844,-47.4243,9.27734,-104.614
63.234,-1.86332,13.3259,-1.7771,-50.6592,6.28662,-107.361
63.24,-1.55676,13.5223,-2.13635,-54.0771,3.90625,-109.985
63.245,-1.49928,13.6181,-2.4046,-57.4951,1.52588,-112.488
63.249,-1.42265,13.9965,-2.60099,-60.9131,-1.58691,-115.967
63.254,-1.20709,14.4803,-2.6441,-64.3921,-4.63867,-119.507
63.26,-1.17356,15.0168,-2.6441,-67.8101,-8.11768,-122.986
63.265,-1.17835,15.2611,-2.56267,-71.4722,-13.3667,-126.77
63.269,-0.522118,15.2467,-2.41418,-74.0356,-19.104,-130.005
63.275,0.277819,15.2611,-2.0166,-75.8057,-23.6816,-134.094
63.28,0.752035,15.194,-1.43701,-78.125,-26.3061,-138.733
63.284,1.02985,15.5149,-0.871785,-80.6885,-27.0996,-143.494
63.289,1.34121,16.2143,-0.464631,-83.9233,-27.771,-148.071
63.295,1.7819,17.0573,-0.632284,-87.7685,-29.9072,-152.1
63.3,2.43813,17.6417,-0.847839,-92.2851,-32.1045,-156.677
63.304,3.40572,18.0776,-1.24062,-96.1914,-33.1421,-161.072
63.309,4.44994,18.4369,-1.64778,-99.3042,-33.9966,-164.673
63.315,4.87626,19.0308,-1.90644,-102.417,-34.4849,-169.495
63.319,4.63676,19.0548,-2.12199,-106.262,-35.4004,-174.805
63.324,4.53138,18.7674,-2.46687,-109.192,-37.0483,-179.626
63.33,4.56491,18.9159,-2.68243,-110.596,-39.7339,-184.326
63.335,4.56012,18.0249,-2.62973,-112.305,-41.1377,-187.561
63.339,4.20087,16.8226,-2.36149,-112.732,-38.8184,-190.369
63.344,3.42009,15.6059,-2.67763,-110.779,-29.3579,-195.251
63.35,2.27527,14.9976,-2.96025,-108.52,-11.7187,-202.087
63.355,1.21188,14.9114,-3.08957,-106.323,10.9253,-209.167
63.359,0.546064,14.7342,-3.11353,-103.21,32.4707,-213.928
63.365,0.479003,13.6277,-3.10874,-98.8769,51.5137,-214.416
63.37,0.531692,12.1954,-3.29075,-92.2851,67.0776,-211.67
63.374,0.699345,11.1752,-3.32429,-84.7168,79.2847,-206.238
63.379,1.22625,10.404,-2.91234,-78.7964,88.2568,-197.266
63.385,1.81063,8.92384,-3.10874,-72.5708,100.281,-184.753
63.39,1.66215,7.93709,-3.48715,-61.3403,113.586,-166.748
63.394,0.186812,8.13828,-3.22369,-52.7954,126.587,-146.729
63.4,-1.72441,8.44005,-2.17468,-49.8657,137.573,-129.333
63.405,-2.65847,8.31551,-0.823883,-51.0864,132.874,-118.103
63.409,-3.171,7.71196,-0.392783,-52.2461,113.464,-114.319
63.414,-4.07632,7.09405,-0.0574768,-51.0864,95.2148,-115.112
63.42,-4.45474,6.8785,0.48379,-48.584,79.1016,-113.77
63.425,-2.87881,6.21268,0.958005,-51.0864,67.9932,-105.164
63.429,-0.986749,4.87626,0.584382,-56.4575,65.979,-88.623
63.434,1.54718,5.45106,0.186812,-56.3354,78.9185,-72.4487
63.44,4.26793,5.384,-1.69088,-55.9692,101.868,-54.8096
63.444,5.89175,3.44883,-4.39725,-53.4058,128.235,-35.3394
63.449,5.8678,1.94954,-6.43781,-42.7856,147.644,-14.4043
63.455,4.83794,1.94475,-6.33722,-27.0386,155.457,3.05176
63.46,3.65001,2.81175,-4.68944,-18.2495,151.672,14.0991
63.464,2.66806,3.3674,-3.89431,-18.3716,140.015,23.7427
63.469,2.14594,3.35782,-3.62606,-21.0571,127.808,33.9355
63.475,2.19384,3.06084,-3.44883,-22.8882,116.15,43.8843
63.48,2.44771,2.91713,-3.24765,-24.4751,104.98,55.6641
63.484,2.43334,2.85007,-3.15185,-26.2451,94.4824,69.519
63.49,1.93518,2.87881,-3.18059,-27.4048,85.6934,83.1909
63.495,1.43222,2.94587,-3.25722,-27.8931,77.9419,95.7031
63.499,1.15919,3.13747,-3.32907,-28.1982,71.8384,106.934
63.504,0.852626,3.37219,-3.5111,-28.4424,67.8711,118.347
63.51,0.426313,3.64522,-3.68354,-28.3813,64.9414,130.798
63.515,0.0335306,3.95657,-3.85119,-28.0151,60.3027,142.944
63.519,-0.22513,4.29188,-3.88472,-28.0762,54.1992,153.992
63.525,-0.205971,4.58885,-3.87035,-28.9307,48.8281,164.368
63.53,-0.0910074,4.79004,-3.82245,-29.541,45.0439,174.133
63.535,0.0431149,4.90979,-3.65001,-29.6631,43.396,183.594
63.539,0.0239462,5.04391,-3.47278,-29.2969,43.0298,193.054
63.545,-0.0287433,5.16366,-3.30513,-28.5034,42.7246,202.087
63.55,-0.0191589,5.29778,-3.13747,-27.5269,42.9077,210.571
63.554,-0.0383179,5.47981,-2.96503,-26.1841,43.7012,218.689
63.559,-0.105379,5.7241,-2.9315,-24.231,44.9219,226.501
63.565,-0.114963,6.2079,-2.85007,-21.7895,46.5698,234.741
63.569,-0.349677,6.61984,-2.79738,-19.7754,47.5464,243.042
63.574,-0.522118,6.93597,-2.85965,-17.2119,47.3633,250.427
63.58,-0.512533,7.29523,-2.94109,-14.2212,46.5088,257.324
63.585,-0.555648,7.62095,-3.04647,-11.1694,45.7153,264.16
63.589,-0.627497,7.87962,-3.16143,-7.75146,44.4946,270.996
63.594,-0.593966,8.09516,-3.30513,-4.02832,42.8467,277.588
63.6,-0.512533,8.35862,-3.47757,-0.12207,41.3818,283.752
63.605,-0.435898,8.65081,-3.58774,3.84522,40.8325,289.795
63.609,-0.387995,9.01965,-3.63564,7.93457,40.1611,295.898
63.615,-0.340093,9.49385,-3.68833,12.085,38.9404,301.453
63.62,-0.320934,10.0256,-3.64043,15.9302,37.4146,306.763
63.624,-0.201183,10.6339,-3.559,18.8599,34.6069,311.829
63.629,-0.186812,11.271,-3.46319,22.0337,32.2266,316.04
63.635,-0.234714,11.7787,-3.37219,26.1841,32.959,319.519
63.64,-0.383208,12.1859,-3.44883,31.0059,34.668,322.876
63.644,-0.550851,12.6792,-3.53505,35.9497,36.1328,325.012
63.65,-0.603541,13.3163,-3.51588,40.5273,37.7197,326.355
63.655,-0.82868,13.9582,-3.61169,44.8608,40.1611,327.454
63.66,-1.22625,14.5761,-3.81766,49.2554,44.4336,328.247
63.664,-1.88728,15.103,-4.15775,54.3213,50.1099,329.224
63.67,-2.76865,15.7017,-4.62238,60.852,56.8237,329.834
63.675,-3.98053,16.4538,-4.88584,68.2373,63.7207,330.139
63.679,-5.34568,17.3399,-4.7613,74.9512,69.458,330.2
63.684,-6.63421,18.0968,-4.40684,79.2847,71.7163,329.834
63.69,-7.75028,18.4848,-4.32062,81.2988,72.0825,328.979
63.694,-8.32509,18.7147,-4.19128,81.543,70.8618,326.843
63.699,-8.64602,19.1075,-4.12422,82.1533,69.1528,322.815
63.705,-8.96696,19.5673,-4.09069,83.5571,70.4346,317.017
63.71,-9.67588,20.0511,-3.9422,85.5102,72.998,310.303
63.714,-10.7632,20.7983,-3.71228,88.562,74.646,302.795
63.719,-12.0661,21.7612,-3.62127,91.1255,72.6929,293.03
63.725,-13.4265,22.2976,-3.64043,91.8579,67.1387,281.006
63.73,-14.9928,22.5515,-3.88472,92.5903,60.9741,267.09
63.735,-16.8035,22.3359,-3.96615,93.9941,54.4434,250.61
63.74,-18.6668,20.7696,-4.01406,90.5762,45.2881,238.037
63.745,-20.6834,19.2128,-4.04279,85.083,30.5786,227.051
63.75,-21.9432,18.0968,-4.15297,78.186,13.5498,210.693
63.755,-22.9108,17.3399,-4.2296,72.1436,-2.01416,191.956
63.76,-23.8065,16.7077,-3.93741,67.0166,-15.1978,171.326
63.765,-24.2855,16.3101,-3.19975,63.2935,-25.2686,147.339
63.77,-24.4675,15.9221,-2.10282,60.5469,-31.6162,122.314
63.776,-24.7406,15.5101,-0.598753,57.0068,-35.5225,96.6797
63.781,-24.5825,15.1461,0.943634,50.5981,-37.8418,68.7866
63.786,-23.5814,14.988,1.9256,41.9311,-36.6821,39.2456
63.791,-21.7612,18.6859,1.72441,37.7197,-32.2876,4.88281
63.796,-19.9457,19.2751,3.40093,29.602,-28.8696,-34.6069
63.801,-19.2033,15.4239,4.00926,11.7187,-13.9771,-63.7207
63.806,-15.855,14.1258,3.52068,2.74658,9.33838,-91.6748
63.811,-13.7857,13.254,2.8405,-2.56348,39.1846,-110.291
63.817,-12.9475,13.3403,3.15663,-10.1318,66.1621,-127.563
63.822,-9.23999,13.0481,2.16988,-23.3154,89.5996,-146.057
63.827,1.98307,11.9799,-0.565223,-30.2124,120.178,-150.208
63.832,14.6911,10.6866,-2.99378,-24.0479,148.804,-128.296
63.837,21.948,10.2172,-2.21779,-10.9863,153.809,-97.5342
63.842,24.5585,10.7057,0.646656,-5.5542,134.216,-81.4819
63.847,21.5839,9.68066,2.33754,-8.36182,116.577,-84.7778
63.852,12.9331,8.13349,3.7506,-6.7749,120.178,-102.417
63.858,2.8884,9.41243,6.639,-1.15967,137.817,-117.798
63.863,-3.68354,12.8181,8.49753,1.83106,156.799,-129.761
63.868,-7.03178,15.3569,7.77903,2.62451,175.049,-140.991
63.873,-9.69983,16.5927,5.35047,7.75146,181.274,-151.245
63.878,-10.3752,16.4394,3.1279,11.4746,167.969,-157.837
63.883,-7.93709,14.6911,0.684973,12.8174,139.16,-153.992
63.888,-5.01517,13.0481,-0.761619,16.5405,113.22,-142.029
63.893,-2.42376,12.0422,-0.191599,19.9585,96.3745,-132.568
63.899,-1.39869,10.7393,0.670602,22.7051,89.2944,-127.136
63.904,-2.48124,9.68066,1.65256,26.6113,86.853,-121.643
63.909,-4.01884,9.11544,2.51956,29.1138,81.1767,-115.112
63.914,-4.90021,9.00528,2.71595,29.9072,66.2231,-108.215
63.919,-4.26313,9.00528,1.2502,30.8228,48.8281,-101.135
63.924,-3.13747,8.57417,-1.24062,33.8135,35.4614,-93.9941
63.929,-2.79738,8.59812,-3.30034,39.0015,24.6582,-88.9282
63.934,-3.40572,9.51781,-4.02843,41.8701,14.4653,-85.6323
63.94,-4.30625,11.1368,-3.65001,39.7949,7.44629,-84.1675
63.944,-4.83794,12.138,-3.03209,33.6304,5.43213,-85.8765
63.949,-3.8464,11.9847,-2.9315,27.0996,5.85938,-88.9892
63.955,-1.69088,10.6626,-3.14227,22.1558,7.8125,-87.4634
63.96,0.0431149,9.01006,-3.16143,20.5078,8.8501,-82.1533
63.964,0.31135,8.00894,-2.91713,20.5078,7.69043,-75.6836
63.969,-0.474215,7.91315,-2.2561,18.8599,3.54004,-70.6177
63.975,-1.48012,8.34425,-1.71962,15.4419,-1.46484,-67.749
63.98,-1.93518,8.96216,-1.4897,11.5356,-5.49316,-66.4673
63.984,-1.82979,9.73815,-1.44181,8.17871,-9.0332,-65.2466
63.99,-1.5376,10.38,-1.45618,4.88281,-12.7563,-63.5986
63.995,-1.16877,10.4423,-1.40827,2.19727,-15.5029,-61.7676
63.999,-1.03944,10.1405,-1.2502,1.09863,-17.395,-59.2651
64.004,-1.41306,9.95849,-1.03944,0.610352,-21.1182,-56.8237
64.01,-1.66693,9.94412,-0.886157,-0.915527,-27.6489,-55.7251
64.015,-1.35559,9.88185,-0.799937,-1.70898,-32.959,-55.6641
64.019,-0.713717,9.7142,-0.684973,-0.732422,-33.8135,-55.2978
64.025,-0.100592,9.50344,-0.522118,2.19727,-30.3345,-54.0771
64.03,-0.0910074,9.64235,-0.507746,5.85938,-24.6582,-51.3306
64.035,-0.411942,9.34057,-0.752035,8.36182,-20.0806,-49.4385
64.039,-0.387995,9.09628,-0.876573,10.7422,-17.0898,-50.2319
64.045,-0.22513,9.12981,-0.799937,12.9395,-14.4043,-51.3306
64.05,-0.296978,9.17772,-0.732876,14.1602,-12.5122,-51.2695
64.054,-0.455056,9.19688,-0.747247,14.4043,-10.9863,-49.3774
64.059,-0.546064,9.16813,-1.01549,14.7705,-9.52148,-47.5464
64.065,-0.565223,9.22082,-1.45618,14.9536,-8.17871,-47.0581
64.069,-0.651443,9.48907,-1.80584,14.0381,-7.50732,-46.3867
64.074,-0.541277,9.35494,-1.93038,12.207,-8.72803,-44.7388
64.08,-0.522118,8.8472,-2.1651,11.5356,-10.0098,-42.7856
64.085,-1.08734,8.8472,-2.24174,11.1694,-11.0474,-41.0767
64.089,-1.51844,9.01965,-2.08846,8.54492,-13.5498,-39.3677
64.094,-1.67651,8.94779,-1.94954,6.65283,-16.4185,-37.5366
64.1,-1.47534,8.97175,-1.79147,6.28662,-20.2637,-36.1938
64.105,-1.33163,9.04359,-1.81063,6.22558,-25.3296,-34.9121
64.109,-1.70047,9.01006,-1.78669,6.7749,-30.6396,-33.9355
64.115,-1.88728,9.05318,-1.3939,6.7749,-36.5601,-32.959
64.12,-2.03097,9.07234,-0.962802,7.20215,-42.9077,-31.8604
64.124,-1.99744,9.15376,-0.775991,7.32422,-48.4619,-31.0669
64.129,-1.72441,9.22082,-0.785565,7.32422,-51.5747,-30.0293
64.135,-1.34121,9.30225,-0.843052,7.62939,-51.9409,-28.7476
64.14,-0.852626,9.45554,-0.986749,8.11768,-50.1709,-27.0996
64.144,-0.613125,9.70462,-1.24541,8.48389,-46.0815,-24.7803
64.15,-0.756822,9.84832,-1.41785,8.23975,-41.1377,-23.0103
64.155,-0.962802,9.68546,-1.61903,7.62939,-36.377,-21.6064
64.16,-1.00591,9.56571,-1.61903,7.01904,-32.8979,-19.5312
64.164,-1.04423,9.36453,-1.46575,6.7749,-30.7617,-17.7612
64.17,-0.900529,9.05318,-1.35559,7.56836,-29.9072,-17.5171
64.175,-0.761619,9.01965,-1.27894,8.42285,-28.0762,-18.1274
64.179,-0.732876,9.10587,-1.35079,7.93457,-25.2075,-19.104
64.184,-0.699345,9.12981,-1.55197,6.83594,-23.1323,-20.2637
64.19,-0.823883,9.04359,-1.70047,6.04248,-21.7895,-21.4233
64.194,-0.766406,8.99569,-1.69568,5.61523,-20.5078,-22.4609
64.199,-0.65624,9.21125,-1.62862,5.00488,-19.5923,-23.5596
64.205,-0.699345,9.23041,-1.72441,4.08936,-18.1885,-25.2686
64.21,-0.756822,9.25915,-1.83937,3.66211,-17.0288,-26.9165
64.214,-0.790352,9.21603,-1.89685,3.479,-15.9912,-28.5645
64.219,-0.823883,9.26394,-1.93518,3.17383,-15.7471,-30.0293
64.225,-0.560435,9.21603,-1.94475,2.68555,-15.3198,-31.6162
64.23,-0.392783,9.28788,-1.89206,2.50244,-13.4888,-33.9355
64.234,-0.560435,9.3789,-2.18426,2.13623,-11.2915,-36.2549
64.24,-0.823883,9.45075,-2.24174,1.77002,-9.52148,-38.147
64.245,-1.29331,9.84832,-1.83937,0.549316,-10.1318,-38.6963
64.249,-1.55197,9.75731,-1.67651,-1.34277,-12.3291,-39.917
64.254,-1.31247,9.27352,-1.67651,-2.07519,-13.4277,-41.4429
64.26,-0.9149,9.26872,-1.66215,-2.31934,-12.4512,-42.7246
64.265,-1.01549,9.46512,-1.56156,-2.92969,-10.376,-44.6167
64.269,-1.2981,9.40285,-1.50407,-3.78418,-9.21631,-46.9971
64.275,-1.36516,9.24956,-1.5855,-4.27246,-8.54492,-48.7671
64.28,-1.21667,9.48907,-1.57113,-4.57764,-8.17871,-50.7812
64.285,-1.1065,9.46512,-1.85375,-5.85938,-7.32422,-52.4902
64.289,-1.24541,9.82437,-1.99266,-6.95801,-7.01904,-54.1992
64.295,-1.42265,9.92017,-2.07409,-8.42285,-8.11768,-56.2134
64.3,-1.49449,9.91059,-2.12199,-9.46045,-9.70459,-57.4341
64.304,-1.50407,10.2076,-1.88249,-9.94873,-12.085,-58.96
64.309,-1.47054,10.0303,-1.55197,-11.2305,-13.7939,-60.5469
64.315,-1.40827,10.1166,-1.08734,-11.7798,-14.6484,-62.9883
64.319,-1.41785,9.87227,-0.780778,-12.3901,-13.916,-65.6738
64.324,-1.51365,10.2219,-0.737663,-12.0239,-12.5122,-68.3594
64.33,-1.44659,10.3321,-0.775991,-13.3667,-10.7422,-71.7773
64.335,-1.48012,10.3656,-1.2502,-14.4653,-8.91113,-74.2798
64.339,-1.7771,10.4854,-2.20341,-14.8315,-8.60596,-77.1484
64.344,-1.95913,10.6866,-2.55309,-15.2588,-10.498,-79.4067
64.35,-1.91602,11.0554,-1.37474,-19.2261,-14.5264,-80.8716
64.355,-2.14594,10.883,-1.02507,-22.2168,-16.3574,-83.313
64.359,-2.09325,11.3332,-0.761619,-23.0713,-16.2964,-85.8765
64.365,-1.89206,11.6494,-0.622709,-25.4517,-15.564,-88.8061
64.37,-1.83937,11.4003,-0.790352,-27.5269,-14.6484,-91.2476
64.374,-1.80106,11.4865,-0.862211,-28.1372,-14.7095,-93.8721
64.379,-1.69568,11.7548,-0.890944,-28.8086,-14.5264,-96.3135
64.385,-1.71484,12.1188,-0.684973,-30.2734,-13.7329,-98.999
64.39,-1.9256,12.8086,-0.488587,-31.311,-13.1836,-102.173
64.394,-2.00224,13.0433,-0.440685,-33.8745,-13.3667,-104.614
64.4,-2.05972,13.1678,-0.378411,-36.1328,-13.9771,-106.201
64.405,-2.03097,13.4696,-0.114963,-36.9873,-14.0991,-109.009
64.41,-1.62862,13.5319,-0.134122,-38.3911,-13.3667,-112.122
64.414,-1.39869,13.7043,-0.948431,-40.1001,-12.5732,-114.014
64.42,-1.44181,14.2935,-1.17356,-42.2974,-12.8174,-117.493
64.425,-1.46096,14.5521,-1.29331,-45.7764,-13.6108,-120.666
64.429,-1.19751,15.1844,-1.48491,-48.2788,-16.4185,-123.596
64.434,-0.383208,15.8023,-1.86812,-51.4526,-19.165,-126.831
64.44,0.25866,16.5927,-2.30401,-55.542,-21.0571,-130.92
64.444,0.627497,17.3256,-2.42376,-60.3027,-23.9258,-136.78
64.449,1.08734,17.6273,-2.42855,-65.3076,-27.6489,-142.578
64.455,1.55676,17.7375,-2.08846,-69.3359,-31.7993,-147.949
64.46,2.28485,18.0489,-1.6334,-72.5708,-36.6821,-154.053
64.464,3.04647,18.2357,-1.10171,-76.355,-40.1611,-160.95
64.469,3.56379,18.7674,-0.502959,-79.9561,-40.9546,-167.725
64.475,4.517,19.5482,0.196396,-83.4961,-42.3584,-173.767
64.48,5.0008,20.3289,0.79515,-87.3413,-46.9971,-178.223
64.484,5.58997,20.5349,0.895741,-92.2851,-53.1006,-181.396
64.49,7.1659,20.5876,0.938846,-96.3135,-56.7627,-184.937
64.495,8.40652,20.4439,0.962802,-99.1211,-57.4341,-190.186
64.499,8.84241,19.6871,0.88137,-101.379,-53.833,-194.702
64.504,8.0329,18.6189,0.675399,-103.088,-48.7671,-198.486
64.51,7.32397,17.3878,0.282616,-102.844,-43.0298,-202.087
64.515,6.45218,15.9844,-0.771194,-100.098,-35.9497,-207.275
64.519,4.59844,15.0072,-1.83459,-95.7031,-20.1416,-212.708
64.525,2.36149,14.3031,-2.79738,-91.7358,5.7373,-219.299
64.53,0.699345,14.2408,-3.90868,-86.9141,34.4238,-225.342
64.534,-0.48379,14.4228,-4.5218,-82.4585,59.6313,-228.699
64.54,-0.756822,13.5702,-4.86668,-78.8574,81.1157,-228.638
64.545,-0.799937,12.2769,-5.16366,-74.4019,97.7783,-224.853
64.55,-1.21667,11.0746,-5.38879,-70.0073,112.488,-217.712
64.555,-1.44181,10.3752,-5.07265,-67.5659,127.075,-206.909
64.56,-1.93518,9.45554,-3.71707,-66.4673,137.756,-192.688
64.565,-2.71116,8.82804,-2.85007,-61.7676,140.076,-177.917
64.57,-2.44771,8.6604,-2.38544,-56.6406,138.794,-166.809
64.575,-1.43222,8.36341,-1.82022,-53.1006,134.583,-159.363
64.581,-0.48379,8.0329,-1.45618,-50.8423,127.38,-154.541
64.586,0.124538,7.26649,-1.03944,-49.0112,128.418,-151.489
64.591,0.268245,6.14083,-1.26936,-48.584,123.169,-140.259
64.596,0.220342,4.89063,-2.16988,-50.0488,103.21,-123.474
64.601,-0.512533,3.40093,-2.32316,-51.5747,84.7168,-103.394
64.606,-1.91122,4.03321,-1.64778,-49.1333,60.9131,-81.1767
64.611,-1.71962,5.20198,-2.26569,-49.0112,36.6821,-60.73
64.616,-0.0718484,4.83794,-3.95657,-51.6357,24.6582,-42.1753
64.622,1.74357,4.01406,-4.59844,-48.8281,22.0947,-27.1606
64.627,3.06563,3.53984,-4.01884,-44.6777,20.4468,-12.8174
64.632,3.72665,3.54463,-3.6548,-41.9311,13.916,3.60107
64.637,3.95178,3.32907,-3.97573,-42.2363,8.66699,18.7378
64.642,4.14818,2.89318,-4.24876,-43.396,7.50732,31.7993
64.647,4.41641,2.5004,-4.2344,-44.0063,7.87354,44.0063
64.652,4.58885,2.41418,-3.89431,-44.4946,8.05664,55.8472
64.657,4.57449,2.61057,-3.40572,-45.8374,8.8501,66.9556
64.663,4.35415,2.79738,-2.8836,-48.7671,11.6577,77.8809
64.668,3.76497,2.96025,-2.52435,-52.124,17.2729,88.3179
64.673,2.96503,3.13269,-2.22258,-54.3823,23.9868,98.7549
64.678,2.16988,3.28118,-2.0645,-55.4199,29.9072,109.375
64.683,1.60946,3.46799,-2.14115,-55.7251,34.4238,120.361
64.688,1.18793,3.67396,-2.13157,-55.542,38.3911,131.531
64.693,0.82868,3.94699,-2.14594,-54.8706,41.1987,142.212
64.698,0.670602,4.32062,-2.22258,-54.0771,42.5415,152.466
64.704,0.517321,4.59844,-2.25132,-53.833,43.457,162.476
64.709,0.445472,4.75172,-2.36628,-53.5278,43.7012,172.302
64.714,0.364039,4.89063,-2.42376,-52.4292,43.2129,181.763
64.719,0.387995,5.01996,-2.46208,-51.3306,42.6636,191.162
64.724,0.411942,5.12056,-2.58184,-49.7436,42.8467,200.378
64.729,0.402367,5.17324,-2.72553,-47.7295,43.8843,209.778
64.734,0.373624,5.28341,-2.83091,-45.166,44.9829,219.177
64.74,0.368836,5.45106,-2.96982,-42.1143,45.8984,228.333
64.745,0.34488,5.68578,-3.15663,-38.8184,46.7529,236.877
64.749,0.330509,6.08814,-3.21412,-35.3394,47.7905,244.812
64.754,0.143697,6.52403,-3.29075,-31.9824,48.1567,252.502
64.76,-0.0910074,6.93597,-3.37219,-28.9917,47.8516,260.01
64.765,-0.306563,7.32876,-3.38177,-25.9399,47.0581,266.907
64.769,-0.488587,7.62574,-3.4153,-23.0103,45.7153,273.438
64.775,-0.493374,7.86525,-3.43446,-19.5923,44.0063,279.785
64.78,-0.387995,8.19097,-3.50152,-16.0522,42.7856,286.072
64.785,-0.340093,8.48316,-3.57337,-12.3291,42.2974,292.297
64.789,-0.268245,8.79451,-3.61648,-8.48389,41.9922,298.279
64.795,-0.196396,9.21125,-3.68833,-4.82178,41.9922,303.772
64.8,-0.196396,9.72378,-3.74102,-0.793457,42.1143,308.899
64.804,-0.100592,10.3177,-3.68354,2.68555,42.1143,313.843
64.809,0.0191589,10.8782,-3.62606,6.22558,42.7856,317.993
64.815,0.134122,11.4099,-3.65959,10.5591,46.2036,321.716
64.819,0.0958045,11.9272,-3.71707,15.8691,51.4526,325.378
64.824,-0.0622739,12.5547,-3.74581,21.3013,56.4575,329.102
64.83,-0.383208,13.2636,-3.76018,25.8179,60.3638,332.52
64.835,-0.747247,14.0157,-3.85598,29.602,62.6221,335.266
64.839,-0.934059,14.7102,-3.99968,33.02,64.9414,336.975
64.844,-1.17835,15.3138,-4.22003,36.1938,68.6646,338.379
64.85,-1.40348,15.9077,-4.51222,40.1001,74.707,339.539
64.855,-1.79147,16.5879,-4.93853,44.9829,83.6182,340.454
64.859,-2.43334,17.3783,-5.57081,51.8799,95.8862,340.515
64.865,-3.59253,18.3027,-6.16957,60.3638,109.497,340.271
64.87,-5.07744,19.3805,-6.69647,68.6646,120.911,339.966
64.874,-6.60068,20.6307,-6.91682,74.8901,126.953,338.867
64.879,-8.0329,21.5552,-7.19943,78.3691,125.977,336.487
64.885,-9.24956,22.0869,-7.52994,79.895,120.178,332.397
64.89,-10.2459,22.3312,-7.5491,80.3223,112.732,325.5
64.894,-11.3572,22.4174,-7.70718,80.6885,102.661,317.261
64.9,-12.4349,22.5276,-7.95147,82.2143,92.102,307.373
64.905,-13.3211,22.5467,-8.30113,85.9375,82.7637,294.312
64.909,-14.5569,22.4509,-8.59333,92.5293,75.3174,278.809
64.914,-16.3197,21.5073,-8.84241,96.6797,63.9038,264.709
64.92,-18.2788,19.9649,-8.84241,97.0459,46.5698,256.592
64.925,-20.0607,18.6812,-8.78015,96.6186,25.2075,247.437
64.929,-21.833,17.8764,-8.5119,95.3369,-0.488281,234.741
64.934,-23.567,17.4501,-8.02331,93.6279,-29.2358,216.614
64.94,-25.3201,17.3256,-6.63421,90.4541,-61.8896,195.557
64.944,-26.7524,17.2202,-4.67508,82.3364,-101.074,174.255
64.949,-26.9009,16.655,-2.97462,69.519,-137.939,149.231
64.955,-25.4686,15.0455,-1.825,57.312,-158.447,119.812
64.96,-23.5383,13.551,-0.814308,49.5605,-156.067,89.6606
64.964,-20.8654,14.7677,-0.277819,45.7764,-142.273,57.4341
64.969,-19.3134,15.3521,-0.0958045,36.9263,-122.437,21.8506
64.975,-16.6214,16.2239,-0.0191589,27.4048,-94.7266,-14.1602
64.98,-13.7953,16.5352,0.335306,18.7378,-63.6597,-47.9126
64.984,-12.8469,15.1317,0.890944,9.94873,-33.7524,-76.0498
64.99,-12.0613,13.2157,1.31247,4.08936,-5.61523,-99.4873
64.995,-11.2183,10.9452,2.33275,-0.488281,23.4375,-118.347
64.999,-11.1177,9.15856,2.96503,-1.09863,54.2602,-131.592
65.004,-7.5491,10.4662,4.84752,-2.92969,84.5947,-139.648
65.01,1.57593,12.6936,7.62095,-10.498,122.07,-148.56
65.015,13.3929,12.5068,7.46288,-8.78906,172.485,-149.292
65.019,22.7335,10.7632,7.52994,3.41797,223.206,-131.714
65.025,26.8721,10.2698,8.56938,14.7095,257.812,-116.028
65.03,25.8471,10.4519,6.87371,26.3672,290.1,-115.479
65.034,19.5673,11.635,5.93007,36.5601,324.646,-126.77
65.039,7.65448,13.9821,5.54687,42.5415,341.125,-140.503
65.045,-5.37443,16.0323,4.19607,46.5698,345.825,-161.682
65.05,-13.8049,18.1063,3.08478,49.9878,345.947,-190.186
65.054,-17.0477,19.256,2.48124,49.6216,332.458,-206.116
65.059,-16.655,17.4741,0.0814328,49.3164,298.645,-200.623
65.065,-13.9773,14.8827,-2.97462,57.6172,252.014,-183.838
65.069,-11.4674,14.2073,-4.19128,67.0166,193.848,-168.64
65.074,-9.71899,14.4037,-2.18426,61.9507,125.061,-159.851
65.08,-7.10363,14.4899,2.66806,44.7388,55.1758,-155.64
65.085,-3.08957,12.593,5.35526,25.7568,5.43213,-150.452
65.089,0.651443,8.08559,2.81654,22.644,-9.0332,-137.268
65.094,1.08734,5.08702,-2.50519,37.8418,6.53076,-123.84
65.1,-1.09691,5.82469,-6.9695,51.3916,34.4849,-122.742
65.105,-3.3626,6.94077,-8.49274,45.4102,51.8799,-129.822
65.109,-3.73144,7.28086,-7.42935,32.5317,47.9736,-131.348
65.115,-3.35782,7.94188,-5.58997,24.353,26.6724,-119.934
65.12,-2.40939,8.67476,-3.13269,19.165,1.46484,-106.384
65.124,-1.87769,8.76098,-1.02507,15.564,-11.5356,-97.6562
65.129,-2.8405,9.52738,0.134122,13.0615,-11.9019,-94.0552
65.135,-3.95657,10.5285,0.435898,9.27734,-3.96728,-96.3135
65.14,-1.63819,11.0027,0.13891,7.93457,11.1084,-99.2432
65.145,-1.06818,10.974,0.809521,7.14111,18.0664,-93.689
65.15,-1.93997,9.45075,1.02985,8.05664,15.8081,-85.2661
65.155,-2.03577,8.63644,-0.167653,12.085,11.4136,-82.2143
65.16,-1.7819,9.20166,-0.0335306,13.2446,9.09424,-82.2754
65.165,-1.65256,10.1357,1.20709,13.855,9.39941,-79.7729
65.17,-2.09325,10.7105,1.59029,15.8691,8.78906,-73.8525
65.175,-2.50519,10.6099,1.2502,18.9819,4.82178,-69.2749
65.18,-1.825,10.4183,0.9149,21.9116,0.488281,-65.979
65.186,-1.2023,10.3896,0.617912,23.2544,-2.01416,-61.7676
65.191,-0.838255,10.0256,0.167653,23.3154,-3.23486,-58.4106
65.196,-0.823883,9.63277,-0.426313,23.5596,-3.41797,-55.9692
65.201,-1.03465,9.3741,-0.900529,23.6816,-3.90625,-54.6875
65.206,-0.953218,9.3789,-1.32205,22.583,-5.00488,-53.2227
65.211,-0.65624,9.19209,-1.81543,20.0195,-6.04248,-50.2319
65.216,-0.641868,8.6077,-2.12678,18.7378,-6.22558,-47.8516
65.221,-0.862211,8.55501,-1.88728,18.8599,-5.5542,-46.5088
65.227,-1.02507,8.89031,-1.52323,18.4326,-4.69971,-46.3257
65.232,-0.838255,9.15376,-1.48012,17.5171,-3.78418,-46.5698
65.237,-0.895741,9.1394,-1.55197,16.7236,-3.23486,-46.814
65.242,-0.737663,9.12024,-1.53281,15.8081,-2.74658,-47.0581
65.247,-0.589179,9.11065,-1.88728,14.1602,-1.95312,-47.4243
65.252,-0.775991,9.05318,-2.22258,12.8174,-1.15967,-46.875
65.257,-1.02507,9.41243,-2.18426,11.6577,-1.95312,-45.7764
65.262,-1.34121,9.79084,-1.94954,9.52148,-3.90625,-45.6543
65.268,-1.14482,9.83395,-1.70047,7.99561,-5.49316,-45.166
65.273,-0.531692,9.89622,-1.57113,7.69043,-7.01904,-44.2505
65.278,-0.464631,9.91059,-1.43701,7.44629,-7.26318,-43.7012
65.283,-0.809521,9.75731,-1.2023,7.75146,-6.28662,-43.5181
65.288,-1.22146,9.75731,-0.833467,8.11768,-5.43213,-43.8843
65.293,-1.36037,9.75731,-0.579594,8.48389,-4.5166,-43.6401
65.298,-1.49449,9.74773,-0.675399,9.0332,-4.15039,-43.2739
65.303,-1.71484,9.62798,-0.991536,9.15527,-5.06592,-42.5415
65.309,-1.64778,9.58966,-1.22146,9.33838,-6.7749,-41.687
65.314,-1.29331,9.58966,-1.36037,9.82666,-8.72803,-41.2598
65.319,-1.19751,9.49385,-1.31726,9.8877,-9.70459,-41.626
65.324,-1.22625,9.23999,-1.25499,9.58252,-9.15527,-41.626
65.329,-1.49928,9.34057,-1.23104,9.46045,-7.99561,-41.5039
65.334,-1.72441,9.43159,-1.22625,8.97217,-7.32422,-41.626
65.339,-2.11241,9.1346,-1.37953,8.48389,-7.38525,-41.1987
65.344,-1.97828,8.98612,-1.40348,8.48389,-8.05664,-40.1611
65.35,-1.71004,9.02443,-1.21667,8.60596,-8.36182,-39.978
65.355,-1.81543,8.87115,-1.14961,8.36182,-7.08008,-40.1001
65.359,-1.93518,8.97653,-1.17356,8.17871,-5.67627,-40.1001
65.365,-1.96391,8.82325,-1.24541,8.05664,-4.76074,-39.978
65.37,-1.99266,8.99569,-1.37474,7.99561,-4.3335,-39.917
65.374,-1.99266,9.06275,-1.40827,7.44629,-4.15039,-40.2222
65.379,-1.99744,9.12503,-1.5424,6.95801,-3.96728,-39.978
65.385,-2.05972,9.24478,-1.60466,6.22558,-4.39453,-39.7339
65.39,-2.12199,9.27831,-1.56156,5.67627,-5.12695,-39.6729
